# accelerometer data
# file: 'rgbd_dataset_freiburg2_pioneer_slam3.bag'
# timestamp ax ay az
1311877976.491870 0.598697 9.447432 -1.257263
1311877976.492858 0.598697 9.447432 -1.257263
1311877976.496475 0.407114 9.279797 -1.353054
1311877976.497469 0.407114 9.279797 -1.353054
1311877976.500810 0.598697 9.471380 -1.353054
1311877976.501729 0.598697 9.471380 -1.353054
1311877976.505004 0.706462 9.279797 -1.448846
1311877976.506364 0.706462 9.279797 -1.448846
1311877976.509604 0.407114 9.184006 -1.544637
1311877976.510624 0.407114 9.184006 -1.544637
1311877976.511888 0.407114 9.184006 -1.544637
1311877976.512875 0.407114 9.184006 -1.544637
1311877976.516529 0.706462 9.471380 -1.353054
1311877976.517515 0.706462 9.471380 -1.353054
1311877976.520880 0.407114 9.136110 -1.520689
1311877976.521886 0.407114 9.136110 -1.520689
1311877976.525508 0.407114 9.471380 -1.353054
1311877976.526505 0.407114 9.471380 -1.353054
1311877976.529766 0.502905 9.471380 -1.448846
1311877976.530785 0.502905 9.471380 -1.448846
1311877976.532262 0.502905 9.471380 -1.448846
1311877976.533368 0.502905 9.471380 -1.448846
1311877976.536780 0.371192 9.279797 -1.353054
1311877976.539744 0.598697 9.375588 -1.209367
1311877976.540766 0.598697 9.375588 -1.209367
1311877976.544384 0.598697 9.279797 -1.209367
1311877976.545383 0.598697 9.279797 -1.209367
1311877976.546500 0.598697 9.279797 -1.209367
1311877976.549751 0.395140 9.279797 -1.257263
1311877976.550764 0.395140 9.279797 -1.257263
1311877976.554370 0.502905 9.567171 -1.161471
1311877976.555346 0.502905 9.567171 -1.161471
1311877976.556618 0.502905 9.567171 -1.161471
1311877976.557602 0.502905 9.567171 -1.161471
1311877976.560875 0.395140 9.279797 -1.353054
1311877976.561865 0.395140 9.279797 -1.353054
1311877976.565383 0.407114 9.471380 -1.353054
1311877976.566510 0.407114 9.471380 -1.353054
1311877976.569633 0.754358 9.471380 -1.353054
1311877976.570777 0.754358 9.471380 -1.353054
1311877976.571910 0.754358 9.471380 -1.353054
1311877976.572872 0.754358 9.471380 -1.353054
1311877976.576507 0.395140 9.279797 -1.544637
1311877976.577475 0.395140 9.279797 -1.544637
1311877976.580776 0.407114 9.471380 -1.448846
1311877976.581892 0.407114 9.471380 -1.448846
1311877976.585382 0.407114 9.279797 -1.353054
1311877976.586496 0.407114 9.279797 -1.353054
1311877976.589631 0.407114 9.136110 -1.448846
1311877976.590767 0.407114 9.136110 -1.448846
1311877976.591910 0.407114 9.136110 -1.448846
1311877976.592994 0.407114 9.136110 -1.448846
1311877976.596634 0.706462 9.459406 -1.257263
1311877976.597633 0.706462 9.459406 -1.257263
1311877976.600873 0.407114 9.088214 -1.448846
1311877976.601882 0.407114 9.088214 -1.448846
1311877976.605519 0.419088 9.471380 -1.161471
1311877976.606655 0.419088 9.471380 -1.161471
1311877976.609737 0.598697 9.471380 -1.353054
1311877976.610759 0.598697 9.471380 -1.353054
1311877976.614408 0.407114 9.088214 -1.257263
1311877976.615384 0.407114 9.088214 -1.257263
1311877976.616621 0.407114 9.088214 -1.257263
1311877976.617597 0.407114 9.088214 -1.257263
1311877976.620752 0.754358 9.471380 -1.257263
1311877976.621767 0.754358 9.471380 -1.257263
1311877976.625384 0.502905 9.279797 -1.353054
1311877976.626472 0.502905 9.279797 -1.353054
1311877976.629621 0.407114 9.279797 -1.496741
1311877976.630720 0.407114 9.279797 -1.496741
1311877976.632023 0.407114 9.279797 -1.496741
1311877976.632993 0.407114 9.279797 -1.496741
1311877976.636507 0.754358 9.471380 -1.353054
1311877976.637615 0.754358 9.471380 -1.353054
1311877976.640749 0.407114 9.279797 -1.448846
1311877976.641884 0.407114 9.279797 -1.448846
1311877976.645354 0.455009 9.375588 -1.544637
1311877976.646505 0.455009 9.375588 -1.544637
1311877976.649625 0.790279 9.471380 -1.353054
1311877976.650759 0.790279 9.471380 -1.353054
1311877976.652011 0.790279 9.471380 -1.353054
1311877976.652975 0.790279 9.471380 -1.353054
1311877976.656505 0.407114 9.184006 -1.496741
1311877976.657610 0.407114 9.184006 -1.496741
1311877976.660878 0.790279 9.471380 -1.161471
1311877976.662007 0.790279 9.471380 -1.161471
1311877976.665385 0.598697 9.375588 -1.161471
1311877976.666631 0.598697 9.375588 -1.161471
1311877976.669619 0.431062 9.279797 -1.353054
1311877976.670762 0.431062 9.279797 -1.353054
1311877976.672008 0.431062 9.279797 -1.353054
1311877976.672989 0.431062 9.279797 -1.353054
1311877976.676478 0.802253 9.459406 -1.448846
1311877976.677606 0.802253 9.459406 -1.448846
1311877976.680883 0.455009 9.136110 -1.353054
1311877976.681900 0.455009 9.136110 -1.353054
1311877976.685499 0.598697 9.375588 -1.257263
1311877976.686512 0.598697 9.375588 -1.257263
1311877976.689743 0.598697 9.471380 -1.209367
1311877976.690755 0.598697 9.471380 -1.209367
1311877976.691867 0.598697 9.471380 -1.209367
1311877976.692847 0.598697 9.471380 -1.209367
1311877976.696609 0.371192 9.279797 -1.353054
1311877976.697546 0.371192 9.279797 -1.353054
1311877976.700756 0.706462 9.471380 -1.257263
1311877976.701924 0.706462 9.471380 -1.257263
1311877976.705394 0.598697 9.279797 -1.496741
1311877976.706491 0.598697 9.279797 -1.496741
1311877976.707470 0.598697 9.279797 -1.496741
1311877976.710760 0.407114 9.375588 -1.496741
1311877976.711741 0.407114 9.375588 -1.496741
1311877976.715365 0.598697 9.471380 -1.448846
1311877976.716379 0.598697 9.471380 -1.448846
1311877976.719680 0.407114 9.375588 -1.496741
1311877976.720747 0.407114 9.375588 -1.496741
1311877976.721866 0.407114 9.375588 -1.496741
1311877976.722991 0.407114 9.375588 -1.496741
1311877976.726607 0.598697 9.471380 -1.161471
1311877976.727483 0.598697 9.471380 -1.161471
1311877976.730748 0.598697 9.459406 -1.353054
1311877976.731751 0.598697 9.459406 -1.353054
1311877976.735519 0.323296 9.184006 -1.448846
1311877976.736488 0.323296 9.184006 -1.448846
1311877976.739626 0.598697 9.423484 -1.353054
1311877976.740778 0.598697 9.423484 -1.353054
1311877976.742011 0.598697 9.423484 -1.353054
1311877976.743008 0.598697 9.423484 -1.353054
1311877976.746509 0.598697 9.184006 -1.353054
1311877976.747499 0.598697 9.184006 -1.353054
1311877976.750756 0.371192 9.375588 -1.209367
1311877976.751863 0.371192 9.375588 -1.209367
1311877976.755399 0.790279 9.471380 -1.257263
1311877976.756372 0.790279 9.471380 -1.257263
1311877976.759729 0.598697 9.279797 -1.448846
1311877976.760743 0.598697 9.279797 -1.448846
1311877976.761869 0.598697 9.279797 -1.448846
1311877976.762994 0.598697 9.279797 -1.448846
1311877976.766635 0.502905 9.471380 -1.448846
1311877976.767498 0.502905 9.471380 -1.448846
1311877976.770882 0.598697 9.447432 -1.353054
1311877976.771749 0.598697 9.447432 -1.353054
1311877976.775502 0.407114 9.112162 -1.496741
1311877976.776371 0.407114 9.112162 -1.496741
1311877976.779628 0.419088 9.375588 -1.353054
1311877976.780753 0.419088 9.375588 -1.353054
1311877976.781873 0.419088 9.375588 -1.353054
1311877976.783371 0.419088 9.375588 -1.353054
1311877976.786627 0.407114 9.375588 -1.448846
1311877976.787601 0.407114 9.375588 -1.448846
1311877976.790875 0.407114 9.279797 -1.496741
1311877976.791848 0.407114 9.279797 -1.496741
1311877976.795476 0.598697 9.519276 -1.209367
1311877976.796617 0.598697 9.519276 -1.209367
1311877976.799778 0.419088 9.184006 -1.353054
1311877976.800756 0.419088 9.184006 -1.353054
1311877976.802004 0.419088 9.184006 -1.353054
1311877976.803378 0.419088 9.184006 -1.353054
1311877976.806628 0.598697 9.471380 -1.353054
1311877976.807625 0.598697 9.471380 -1.353054
1311877976.810866 0.598697 9.471380 -1.257263
1311877976.811860 0.598697 9.471380 -1.257263
1311877976.815615 0.407114 9.184006 -0.969888
1311877976.816544 0.407114 9.184006 -0.969888
1311877976.819752 0.407114 9.471380 -1.161471
1311877976.820762 0.407114 9.471380 -1.161471
1311877976.822011 0.407114 9.471380 -1.161471
1311877976.823375 0.407114 9.471380 -1.161471
1311877976.826627 0.407114 9.184006 -1.173445
1311877976.827720 0.407114 9.184006 -1.173445
1311877976.831167 0.706462 10.237712 -1.257263
1311877976.832224 0.706462 10.237712 -1.257263
1311877976.833352 0.706462 10.237712 -1.257263
1311877976.837056 0.023948 10.572982 -3.077300
1311877976.837884 0.023948 10.572982 -3.077300
1311877976.841630 1.089628 8.609257 -3.460466
1311877976.842761 1.089628 8.609257 -3.460466
1311877976.846611 1.951751 9.279797 -1.173445
1311877976.847742 1.951751 9.279797 -1.173445
1311877976.851374 -0.167635 8.130300 0.371192
1311877976.854552 -0.167635 8.896631 -0.011974
1311877976.855495 -0.167635 8.896631 -0.011974
1311877976.856750 -0.167635 8.896631 -0.011974
1311877976.857730 -0.167635 8.896631 -0.011974
1311877976.861630 1.089628 7.124489 -2.119386
1311877976.862722 1.089628 7.124489 -2.119386
1311877976.866677 1.269237 9.567171 -0.682514
1311877976.869622 0.598697 8.800840 0.371192
1311877976.870773 0.598697 8.800840 0.371192
1311877976.871992 0.598697 8.800840 0.371192
1311877976.872999 0.598697 8.800840 0.371192
1311877976.876641 -0.347244 10.249685 0.419088
1311877976.877612 -0.347244 10.249685 0.419088
1311877976.880902 0.407114 9.662963 -1.161471
1311877976.881971 0.407114 9.662963 -1.161471
1311877976.885490 0.993836 10.620877 -0.826201
1311877976.886616 0.993836 10.620877 -0.826201
1311877976.889743 -0.359218 10.668773 -0.107765
1311877976.890869 -0.359218 10.668773 -0.107765
1311877976.894623 -1.113576 9.471380 -0.443035
1311877976.895489 -1.113576 9.471380 -0.443035
1311877976.896867 -1.113576 9.471380 -0.443035
1311877976.897848 -1.113576 9.471380 -0.443035
1311877976.901392 1.173445 10.237712 -1.927803
1311877976.902505 1.173445 10.237712 -1.927803
1311877976.905760 0.323296 10.046129 -1.832012
1311877976.906748 0.323296 10.046129 -1.832012
1311877976.909775 -0.059870 9.136110 -1.736220
1311877976.910750 -0.059870 9.136110 -1.736220
1311877976.914365 0.502905 8.705048 -1.736220
1311877976.915373 0.502905 8.705048 -1.736220
1311877976.916628 0.502905 8.705048 -1.736220
1311877976.917748 0.502905 8.705048 -1.736220
1311877976.921009 0.802253 9.088214 -2.694135
1311877976.922002 0.802253 9.088214 -2.694135
1311877976.925508 0.227505 8.417674 -2.310969
1311877976.926623 0.227505 8.417674 -2.310969
1311877976.929869 0.993836 9.375588 -1.927803
1311877976.930891 0.993836 9.375588 -1.927803
1311877976.934490 0.802253 8.513465 -1.927803
1311877976.935625 0.802253 8.513465 -1.927803
1311877976.936923 0.802253 8.513465 -1.927803
1311877976.939740 0.598697 9.662963 -1.927803
1311877976.940885 0.598697 9.662963 -1.927803
1311877976.944497 0.993836 8.896631 -1.544637
1311877976.945493 0.993836 8.896631 -1.544637
1311877976.946761 0.993836 8.896631 -1.544637
1311877976.947741 0.993836 8.896631 -1.544637
1311877976.950864 0.838175 9.567171 -1.161471
1311877976.951993 0.838175 9.567171 -1.161471
1311877976.955623 0.371192 9.447432 -0.874097
1311877976.956641 0.371192 9.447432 -0.874097
1311877976.960038 0.754358 9.758754 -1.065680
1311877976.960843 0.754358 9.758754 -1.065680
1311877976.961846 0.754358 9.758754 -1.065680
1311877976.965633 0.598697 9.854546 -1.353054
1311877976.966609 0.598697 9.854546 -1.353054
1311877976.969756 0.598697 9.902441 -1.353054
1311877976.970799 0.598697 9.902441 -1.353054
1311877976.972354 0.598697 9.902441 -1.353054
1311877976.975505 0.598697 9.423484 -1.544637
1311877976.976612 0.598697 9.423484 -1.544637
1311877976.980468 0.706462 9.279797 -1.736220
1311877976.981348 0.706462 9.279797 -1.736220
1311877976.984497 0.706462 9.088214 -1.640429
1311877976.985544 0.706462 9.088214 -1.640429
1311877976.986889 0.706462 9.088214 -1.640429
1311877976.987757 0.706462 9.088214 -1.640429
1311877976.990956 0.502905 8.705048 -1.568585
1311877976.991881 0.502905 8.705048 -1.568585
1311877976.995489 0.706462 9.088214 -1.353054
1311877976.996464 0.706462 9.088214 -1.353054
1311877976.999730 0.407114 8.992423 -1.544637
1311877977.000730 0.407114 8.992423 -1.544637
1311877977.004537 0.407114 9.184006 -1.496741
1311877977.005599 0.407114 9.184006 -1.496741
1311877977.006600 0.407114 9.184006 -1.496741
1311877977.009876 0.598697 9.662963 -0.874097
1311877977.010972 0.598697 9.662963 -0.874097
1311877977.014512 0.023948 9.495328 -0.969888
1311877977.015458 0.023948 9.495328 -0.969888
1311877977.016725 0.023948 9.495328 -0.969888
1311877977.017743 0.023948 9.495328 -0.969888
1311877977.020889 0.323296 9.854546 -0.969888
1311877977.021858 0.323296 9.854546 -0.969888
1311877977.025360 0.502905 9.758754 -0.969888
1311877977.026492 0.502905 9.758754 -0.969888
1311877977.029728 0.371192 9.471380 -0.778306
1311877977.030722 0.371192 9.471380 -0.778306
1311877977.031838 0.371192 9.471380 -0.778306
1311877977.032968 0.371192 9.471380 -0.778306
1311877977.036501 0.598697 9.375588 -1.137524
1311877977.037627 0.598697 9.375588 -1.137524
1311877977.040870 0.598697 8.896631 -1.161471
1311877977.041728 0.598697 8.896631 -1.161471
1311877977.045363 0.598697 8.992423 -1.161471
1311877977.046339 0.598697 8.992423 -1.161471
1311877977.049637 0.598697 9.136110 -1.161471
1311877977.050617 0.598697 9.136110 -1.161471
1311877977.052126 0.598697 9.136110 -1.161471
1311877977.055483 0.407114 9.088214 -1.448846
1311877977.056459 0.407114 9.088214 -1.448846
1311877977.059601 0.407114 9.279797 -1.448846
1311877977.060586 0.407114 9.279797 -1.448846
1311877977.061845 0.407114 9.279797 -1.448846
1311877977.062995 0.407114 9.279797 -1.448846
1311877977.066475 0.455009 9.423484 -1.520689
1311877977.067545 0.455009 9.423484 -1.520689
1311877977.071022 0.407114 9.279797 -1.161471
1311877977.072349 0.407114 9.279797 -1.161471
1311877977.075636 0.598697 9.519276 -1.161471
1311877977.076587 0.598697 9.519276 -1.161471
1311877977.077591 0.598697 9.519276 -1.161471
1311877977.080719 0.407114 9.375588 -1.257263
1311877977.081879 0.407114 9.375588 -1.257263
1311877977.085499 0.395140 9.459406 -0.969888
1311877977.086478 0.395140 9.459406 -0.969888
1311877977.089749 0.706462 9.471380 -1.065680
1311877977.090719 0.706462 9.471380 -1.065680
1311877977.094375 0.502905 9.184006 -1.173445
1311877977.095488 0.502905 9.184006 -1.173445
1311877977.096495 0.502905 9.184006 -1.173445
1311877977.099777 0.598697 9.279797 -1.161471
1311877977.100756 0.598697 9.279797 -1.161471
1311877977.104478 0.598697 9.279797 -1.257263
1311877977.105481 0.598697 9.279797 -1.257263
1311877977.106723 0.598697 9.279797 -1.257263
1311877977.107714 0.598697 9.279797 -1.257263
1311877977.110877 0.323296 9.184006 -1.544637
1311877977.111872 0.323296 9.184006 -1.544637
1311877977.115488 0.598697 9.375588 -1.544637
1311877977.116498 0.598697 9.375588 -1.544637
1311877977.119731 0.419088 9.279797 -1.640429
1311877977.120997 0.419088 9.279797 -1.640429
1311877977.124377 0.407114 9.184006 -1.592533
1311877977.125362 0.407114 9.184006 -1.592533
1311877977.126597 0.407114 9.184006 -1.592533
1311877977.127588 0.407114 9.184006 -1.592533
1311877977.130857 0.502905 9.519276 -1.592533
1311877977.131869 0.502905 9.519276 -1.592533
1311877977.135485 0.407114 9.184006 -1.544637
1311877977.136514 0.407114 9.184006 -1.544637
1311877977.139740 0.502905 9.495328 -1.496741
1311877977.140755 0.502905 9.495328 -1.496741
1311877977.141975 0.502905 9.495328 -1.496741
1311877977.142963 0.502905 9.495328 -1.496741
1311877977.146594 0.598697 9.184006 -1.161471
1311877977.147580 0.598697 9.184006 -1.161471
1311877977.150862 0.598697 9.279797 -1.173445
1311877977.151866 0.598697 9.279797 -1.173445
1311877977.155480 0.778306 9.375588 -1.185419
1311877977.156458 0.778306 9.375588 -1.185419
1311877977.159776 0.706462 9.184006 -1.257263
1311877977.160744 0.706462 9.184006 -1.257263
1311877977.161731 0.706462 9.184006 -1.257263
1311877977.165532 0.706462 9.184006 -1.353054
1311877977.166479 0.706462 9.184006 -1.353054
1311877977.169609 0.802253 9.459406 -1.353054
1311877977.170627 0.802253 9.459406 -1.353054
1311877977.172019 0.802253 9.459406 -1.353054
1311877977.173139 0.802253 9.459406 -1.353054
1311877977.176509 0.419088 9.184006 -1.496741
1311877977.177514 0.419088 9.184006 -1.496741
1311877977.180750 0.598697 9.471380 -1.640429
1311877977.181723 0.598697 9.471380 -1.640429
1311877977.185363 0.407114 9.471380 -1.736220
1311877977.186480 0.407114 9.471380 -1.736220
1311877977.189619 0.323296 9.471380 -1.832012
1311877977.190603 0.323296 9.471380 -1.832012
1311877977.191872 0.323296 9.471380 -1.832012
1311877977.192982 0.323296 9.471380 -1.832012
1311877977.196627 0.419088 9.567171 -1.592533
1311877977.197465 0.419088 9.567171 -1.592533
1311877977.200718 0.395140 9.279797 -1.640429
1311877977.201717 0.395140 9.279797 -1.640429
1311877977.205371 0.407114 9.279797 -1.544637
1311877977.206523 0.407114 9.279797 -1.544637
1311877977.207708 0.407114 9.279797 -1.544637
1311877977.210722 0.502905 9.279797 -1.544637
1311877977.211747 0.502905 9.279797 -1.544637
1311877977.215345 0.407114 9.088214 -1.496741
1311877977.216328 0.407114 9.088214 -1.496741
1311877977.217561 0.407114 9.088214 -1.496741
1311877977.220877 0.706462 9.375588 -1.161471
1311877977.221890 0.706462 9.375588 -1.161471
1311877977.225368 0.407114 9.279797 -1.161471
1311877977.226498 0.407114 9.279797 -1.161471
1311877977.229610 0.323296 9.136110 -1.209367
1311877977.230725 0.323296 9.136110 -1.209367
1311877977.231962 0.323296 9.136110 -1.209367
1311877977.232834 0.323296 9.136110 -1.209367
1311877977.236470 0.598697 9.471380 -1.161471
1311877977.237466 0.598697 9.471380 -1.161471
1311877977.240741 0.323296 9.375588 -1.161471
1311877977.241730 0.323296 9.375588 -1.161471
1311877977.244993 0.323296 9.471380 -1.161471
1311877977.246002 0.323296 9.471380 -1.161471
1311877977.249489 0.598697 9.519276 -1.161471
1311877977.250588 0.598697 9.519276 -1.161471
1311877977.251711 0.598697 9.519276 -1.161471
1311877977.252760 0.598697 9.519276 -1.161471
1311877977.256014 0.395140 9.279797 -1.353054
1311877977.256984 0.395140 9.279797 -1.353054
1311877977.260470 0.502905 9.471380 -1.353054
1311877977.261462 0.502905 9.471380 -1.353054
1311877977.264740 0.598697 9.184006 -1.496741
1311877977.265735 0.598697 9.184006 -1.496741
1311877977.269350 0.323296 9.184006 -1.353054
1311877977.270487 0.323296 9.184006 -1.353054
1311877977.271603 0.323296 9.184006 -1.353054
1311877977.274923 0.598697 9.423484 -1.185419
1311877977.276011 0.598697 9.423484 -1.185419
1311877977.276853 0.598697 9.423484 -1.185419
1311877977.280478 0.598697 9.088214 -1.257263
1311877977.281529 0.598697 9.088214 -1.257263
1311877977.284773 0.431062 9.184006 -1.257263
1311877977.285728 0.431062 9.184006 -1.257263
1311877977.287373 0.431062 9.184006 -1.257263
1311877977.290488 0.598697 9.471380 -1.161471
1311877977.291474 0.598697 9.471380 -1.161471
1311877977.294726 0.455009 9.112162 -1.065680
1311877977.295710 0.455009 9.112162 -1.065680
1311877977.299343 0.407114 9.471380 -1.161471
1311877977.300478 0.407114 9.471380 -1.161471
1311877977.301599 0.407114 9.471380 -1.161471
1311877977.302727 0.407114 9.471380 -1.161471
1311877977.305747 0.502905 9.279797 -1.257263
1311877977.306894 0.502905 9.279797 -1.257263
1311877977.310514 0.598697 9.279797 -1.257263
1311877977.311507 0.598697 9.279797 -1.257263
1311877977.314584 0.598697 9.471380 -1.353054
1311877977.315729 0.598697 9.471380 -1.353054
1311877977.317000 0.598697 9.471380 -1.353054
1311877977.317873 0.598697 9.471380 -1.353054
1311877977.321480 0.407114 9.136110 -1.544637
1311877977.322596 0.407114 9.136110 -1.544637
1311877977.325734 0.598697 9.279797 -1.544637
1311877977.326851 0.598697 9.279797 -1.544637
1311877977.330352 0.802253 9.447432 -1.544637
1311877977.331467 0.802253 9.447432 -1.544637
1311877977.334731 0.598697 9.100188 -1.544637
1311877977.335728 0.598697 9.100188 -1.544637
1311877977.336989 0.598697 9.100188 -1.544637
1311877977.340506 0.706462 9.471380 -1.544637
1311877977.341471 0.706462 9.471380 -1.544637
1311877977.342612 0.706462 9.471380 -1.544637
1311877977.345861 0.431062 9.375588 -1.353054
1311877977.346853 0.431062 9.375588 -1.353054
1311877977.350536 0.323296 9.279797 -1.353054
1311877977.351496 0.323296 9.279797 -1.353054
1311877977.354749 0.419088 9.423484 -1.353054
1311877977.355602 0.419088 9.423484 -1.353054
1311877977.356984 0.419088 9.423484 -1.353054
1311877977.357857 0.419088 9.423484 -1.353054
1311877977.361488 0.227505 9.184006 -1.161471
1311877977.362588 0.227505 9.184006 -1.161471
1311877977.365725 0.371192 9.279797 -0.969888
1311877977.366884 0.371192 9.279797 -0.969888
1311877977.370527 0.407114 9.279797 -1.065680
1311877977.371492 0.407114 9.279797 -1.065680
1311877977.372499 0.407114 9.279797 -1.065680
1311877977.375865 0.227505 9.279797 -0.826201
1311877977.376880 0.227505 9.279797 -0.826201
1311877977.380343 0.371192 9.471380 -0.802253
1311877977.381367 0.371192 9.471380 -0.802253
1311877977.384737 0.323296 9.375588 -1.161471
1311877977.385725 0.323296 9.375588 -1.161471
1311877977.386983 0.323296 9.375588 -1.161471
1311877977.387953 0.323296 9.375588 -1.161471
1311877977.391608 0.227505 9.471380 -1.353054
1311877977.392578 0.227505 9.471380 -1.353054
1311877977.395850 0.502905 9.519276 -1.161471
1311877977.396828 0.502905 9.519276 -1.161471
1311877977.400652 0.323296 9.471380 -1.496741
1311877977.401736 0.323296 9.471380 -1.496741
1311877977.402743 0.323296 9.471380 -1.496741
1311877977.405868 0.502905 9.279797 -1.903855
1311877977.407013 0.502905 9.279797 -1.903855
1311877977.410477 0.802253 9.471380 -1.951751
1311877977.411485 0.802253 9.471380 -1.951751
1311877977.414735 0.455009 9.279797 -2.023594
1311877977.415730 0.455009 9.279797 -2.023594
1311877977.419407 0.802253 9.375588 -1.832012
1311877977.420475 0.802253 9.375588 -1.832012
1311877977.421477 0.802253 9.375588 -1.832012
1311877977.424746 0.802253 9.459406 -1.736220
1311877977.425735 0.802253 9.459406 -1.736220
1311877977.429463 0.598697 9.088214 -1.927803
1311877977.430470 0.598697 9.088214 -1.927803
1311877977.431712 0.598697 9.088214 -1.927803
1311877977.432604 0.598697 9.088214 -1.927803
1311877977.436363 0.802253 7.986612 -0.969888
1311877977.438021 0.802253 7.986612 -0.969888
1311877977.440629 0.407114 10.046129 -0.011974
1311877977.441595 0.407114 10.046129 -0.011974
1311877977.444864 -0.694488 9.279797 -0.969888
1311877977.445843 -0.694488 9.279797 -0.969888
1311877977.449625 0.886071 9.471380 -1.927803
1311877977.450635 0.886071 9.471380 -1.927803
1311877977.451866 0.886071 9.471380 -1.927803
1311877977.452885 0.886071 9.471380 -1.927803
1311877977.456594 0.407114 9.854546 -1.353054
1311877977.457594 0.407114 9.854546 -1.353054
1311877977.461359 -0.059870 10.333503 -0.203557
1311877977.464608 0.407114 10.237712 -0.766332
1311877977.465620 0.407114 10.237712 -0.766332
1311877977.466858 0.407114 10.237712 -0.766332
1311877977.468000 0.407114 10.237712 -0.766332
1311877977.472062 0.993836 8.896631 -3.412571
1311877977.475608 0.886071 9.567171 -2.598343
1311877977.476595 0.886071 9.567171 -2.598343
1311877977.479967 0.886071 9.088214 -1.137524
1311877977.481012 0.886071 9.088214 -1.137524
1311877977.484606 0.802253 9.088214 -0.826201
1311877977.485726 0.802253 9.088214 -0.826201
1311877977.486867 0.802253 9.088214 -0.826201
1311877977.487834 0.802253 9.088214 -0.826201
1311877977.491896 1.580559 8.345830 -3.173092
1311877977.492848 1.580559 8.345830 -3.173092
1311877977.496615 1.472794 9.279797 -2.406760
1311877977.497715 1.472794 9.279797 -2.406760
1311877977.501487 0.838175 8.896631 -0.874097
1311877977.502471 0.838175 8.896631 -0.874097
1311877977.505645 -0.167635 9.088214 -0.874097
1311877977.507325 -0.167635 9.088214 -0.874097
1311877977.510368 0.598697 8.513465 -2.263073
1311877977.511482 0.598697 8.513465 -2.263073
1311877977.512606 0.598697 8.513465 -2.263073
1311877977.515868 0.993836 9.950337 -1.736220
1311877977.516960 0.993836 9.950337 -1.736220
1311877977.520796 -0.263426 9.854546 -0.395140
1311877977.521721 -0.263426 9.854546 -0.395140
1311877977.525369 -0.347244 9.567171 -0.203557
1311877977.526333 -0.347244 9.567171 -0.203557
1311877977.527467 -0.347244 9.567171 -0.203557
1311877977.530962 0.706462 9.279797 -1.353054
1311877977.531980 0.706462 9.279797 -1.353054
1311877977.535609 0.119739 9.662963 -1.161471
1311877977.536595 0.119739 9.662963 -1.161471
1311877977.539993 -0.167635 9.662963 -0.107765
1311877977.541301 -0.167635 9.662963 -0.107765
1311877977.544477 -0.167635 9.279797 -0.011974
1311877977.545519 -0.167635 9.279797 -0.011974
1311877977.546731 -0.167635 9.279797 -0.011974
1311877977.547697 -0.167635 9.279797 -0.011974
1311877977.551376 0.502905 8.752944 -1.448846
1311877977.552474 0.502905 8.752944 -1.448846
1311877977.555715 0.754358 9.567171 -0.969888
1311877977.556821 0.754358 9.567171 -0.969888
1311877977.560468 0.023948 9.471380 -0.299348
1311877977.561456 0.023948 9.471380 -0.299348
1311877977.564877 -0.311322 9.040318 -0.682514
1311877977.565709 -0.311322 9.040318 -0.682514
1311877977.569519 0.802253 9.100188 -1.353054
1311877977.570506 0.802253 9.100188 -1.353054
1311877977.571845 0.802253 9.100188 -1.353054
1311877977.572739 0.802253 9.100188 -1.353054
1311877977.576012 0.119739 9.471380 -1.161471
1311877977.576837 0.119739 9.471380 -1.161471
1311877977.580621 0.023948 9.758754 -0.395140
1311877977.581659 0.023948 9.758754 -0.395140
1311877977.584746 0.035922 9.375588 -0.826201
1311877977.585857 0.035922 9.375588 -0.826201
1311877977.589460 0.455009 9.088214 -1.544637
1311877977.590578 0.455009 9.088214 -1.544637
1311877977.591737 0.455009 9.088214 -1.544637
1311877977.592857 0.455009 9.088214 -1.544637
1311877977.595966 0.502905 9.854546 -1.137524
1311877977.596957 0.502905 9.854546 -1.137524
1311877977.600618 -0.167635 9.483354 -0.682514
1311877977.601605 -0.167635 9.483354 -0.682514
1311877977.604855 0.227505 9.040318 -1.065680
1311877977.605835 0.227505 9.040318 -1.065680
1311877977.609533 0.993836 9.423484 -1.496741
1311877977.610494 0.993836 9.423484 -1.496741
1311877977.611718 0.993836 9.423484 -1.496741
1311877977.612735 0.993836 9.423484 -1.496741
1311877977.615874 0.323296 9.471380 -0.969888
1311877977.616960 0.323296 9.471380 -0.969888
1311877977.620478 0.407114 9.495328 -0.682514
1311877977.621631 0.407114 9.495328 -0.682514
1311877977.624753 0.802253 9.088214 -1.209367
1311877977.625869 0.802253 9.088214 -1.209367
1311877977.629469 0.838175 9.088214 -1.640429
1311877977.630579 0.838175 9.088214 -1.640429
1311877977.631855 0.838175 9.088214 -1.640429
1311877977.632708 0.838175 9.088214 -1.640429
1311877977.636002 0.778306 9.758754 -0.969888
1311877977.637425 0.778306 9.758754 -0.969888
1311877977.640638 0.419088 9.088214 -1.161471
1311877977.641742 0.419088 9.088214 -1.161471
1311877977.644747 0.886071 8.992423 -1.544637
1311877977.645881 0.886071 8.992423 -1.544637
1311877977.649342 1.185419 9.567171 -1.556611
1311877977.650520 1.185419 9.567171 -1.556611
1311877977.651752 1.185419 9.567171 -1.556611
1311877977.652712 1.185419 9.567171 -1.556611
1311877977.655867 0.407114 9.471380 -1.544637
1311877977.656852 0.407114 9.471380 -1.544637
1311877977.660465 0.778306 9.423484 -1.448846
1311877977.661454 0.778306 9.423484 -1.448846
1311877977.664902 1.137524 9.088214 -1.736220
1311877977.665869 1.137524 9.088214 -1.736220
1311877977.666990 1.137524 9.088214 -1.736220
1311877977.670606 0.706462 9.279797 -1.544637
1311877977.671492 0.706462 9.279797 -1.544637
1311877977.674731 0.598697 9.830598 -1.353054
1311877977.675837 0.598697 9.830598 -1.353054
1311877977.679332 0.502905 9.112162 -1.448846
1311877977.680327 0.502905 9.112162 -1.448846
1311877977.681594 0.502905 9.112162 -1.448846
1311877977.682734 0.502905 9.112162 -1.448846
1311877977.685853 0.886071 9.112162 -1.640429
1311877977.686985 0.886071 9.112162 -1.640429
1311877977.690498 0.790279 9.662963 -1.353054
1311877977.691451 0.790279 9.662963 -1.353054
1311877977.694842 0.227505 9.495328 -1.353054
1311877977.695710 0.227505 9.495328 -1.353054
1311877977.699333 0.431062 9.112162 -1.544637
1311877977.700460 0.431062 9.112162 -1.544637
1311877977.701715 0.431062 9.112162 -1.544637
1311877977.702752 0.431062 9.112162 -1.544637
1311877977.705872 0.802253 9.471380 -1.544637
1311877977.706971 0.802253 9.471380 -1.544637
1311877977.710689 0.395140 9.279797 -1.257263
1311877977.711610 0.395140 9.279797 -1.257263
1311877977.712620 0.395140 9.279797 -1.257263
1311877977.715833 0.598697 9.471380 -1.065680
1311877977.716836 0.598697 9.471380 -1.065680
1311877977.720725 0.502905 9.088214 -1.736220
1311877977.721719 0.502905 9.088214 -1.736220
1311877977.724739 0.802253 9.184006 -1.544637
1311877977.725704 0.802253 9.184006 -1.544637
1311877977.729482 0.598697 9.662963 -1.161471
1311877977.730453 0.598697 9.662963 -1.161471
1311877977.731737 0.598697 9.662963 -1.161471
1311877977.732699 0.598697 9.662963 -1.161471
1311877977.735882 -0.167635 8.513465 -1.257263
1311877977.736871 -0.167635 8.513465 -1.257263
1311877977.740615 0.598697 6.789219 -0.395140
1311877977.741620 0.598697 6.789219 -0.395140
1311877977.744761 1.221341 9.662963 1.041732
1311877977.745738 1.221341 9.662963 1.041732
1311877977.749221 -1.508715 11.578792 0.035922
1311877977.750659 -1.508715 11.578792 0.035922
1311877977.751586 -1.508715 11.578792 0.035922
1311877977.752647 -1.508715 11.578792 0.035922
1311877977.756708 0.598697 8.226091 -2.310969
1311877977.757568 0.598697 8.226091 -2.310969
1311877977.761339 1.987673 10.596929 -1.544637
1311877977.764735 -0.730410 11.099835 -0.490931
1311877977.765724 -0.730410 11.099835 -0.490931
1311877977.766962 -0.730410 11.099835 -0.490931
1311877977.767981 -0.730410 11.099835 -0.490931
1311877977.771723 -0.167635 10.812460 -1.640429
1311877977.772734 -0.167635 10.812460 -1.640429
1311877977.776720 1.161471 8.609257 -4.418381
1311877977.777726 1.161471 8.609257 -4.418381
1311877977.780987 0.598697 10.237712 -4.226798
1311877977.781947 0.598697 10.237712 -4.226798
1311877977.785846 -0.347244 9.483354 -1.927803
1311877977.786966 -0.347244 9.483354 -1.927803
1311877977.790471 0.371192 9.279797 -1.353054
1311877977.791596 0.371192 9.279797 -1.353054
1311877977.795336 0.802253 8.130300 -3.077300
1311877977.796451 0.802253 8.130300 -3.077300
1311877977.799846 1.855959 8.513465 -3.843632
1311877977.800842 1.855959 8.513465 -3.843632
1311877977.804873 0.407114 9.136110 -1.556611
1311877977.805886 0.407114 9.136110 -1.556611
1311877977.809975 0.598697 8.705048 -0.203557
1311877977.810840 0.598697 8.705048 -0.203557
1311877977.811872 0.598697 8.705048 -0.203557
1311877977.815596 0.407114 8.321882 -1.161471
1311877977.816582 0.407114 8.321882 -1.161471
1311877977.819768 1.365028 9.279797 -1.173445
1311877977.820716 1.365028 9.279797 -1.173445
1311877977.824468 0.802253 10.620877 -0.107765
1311877977.825455 0.802253 10.620877 -0.107765
1311877977.826726 0.802253 10.620877 -0.107765
1311877977.827828 0.802253 10.620877 -0.107765
1311877977.831468 -0.263426 9.184006 0.371192
1311877977.832448 -0.263426 9.184006 0.371192
1311877977.835731 1.269237 9.471380 -0.490931
1311877977.836742 1.269237 9.471380 -0.490931
1311877977.839922 1.365028 9.662963 -0.969888
1311877977.840855 1.365028 9.662963 -0.969888
1311877977.844489 0.023948 9.471380 -0.395140
1311877977.845454 0.023948 9.471380 -0.395140
1311877977.846719 0.023948 9.471380 -0.395140
1311877977.847837 0.023948 9.471380 -0.395140
1311877977.850966 0.407114 8.992423 -0.586723
1311877977.854463 0.778306 8.513465 -1.544637
1311877977.855593 0.778306 8.513465 -1.544637
1311877977.856716 0.778306 8.513465 -1.544637
1311877977.857718 0.778306 8.513465 -1.544637
1311877977.860835 0.886071 9.854546 -1.879907
1311877977.861842 0.886071 9.854546 -1.879907
1311877977.865498 -0.167635 9.471380 -1.353054
1311877977.866641 -0.167635 9.471380 -1.353054
1311877977.869912 0.011974 8.705048 -1.903855
1311877977.870850 0.011974 8.705048 -1.903855
1311877977.874460 0.886071 9.375588 -2.502552
1311877977.875585 0.886071 9.375588 -2.502552
1311877977.876714 0.886071 9.375588 -2.502552
1311877977.877699 0.886071 9.375588 -2.502552
1311877977.880885 0.023948 9.471380 -1.939777
1311877977.881903 0.023948 9.471380 -1.939777
1311877977.885593 -0.167635 9.375588 -0.969888
1311877977.886566 -0.167635 9.375588 -0.969888
1311877977.889720 0.407114 8.992423 -1.161471
1311877977.890867 0.407114 8.992423 -1.161471
1311877977.894350 0.455009 9.184006 -1.544637
1311877977.895453 0.455009 9.184006 -1.544637
1311877977.896590 0.455009 9.184006 -1.544637
1311877977.897585 0.455009 9.184006 -1.544637
1311877977.901367 0.227505 9.662963 -0.490931
1311877977.902620 0.227505 9.662963 -0.490931
1311877977.905468 -0.167635 9.519276 -0.011974
1311877977.906736 -0.167635 9.519276 -0.011974
1311877977.909714 -0.347244 9.064266 -0.407114
1311877977.910864 -0.347244 9.064266 -0.407114
1311877977.914355 0.706462 9.878494 -0.586723
1311877977.915477 0.706462 9.878494 -0.586723
1311877977.916628 0.706462 9.878494 -0.586723
1311877977.917603 0.706462 9.878494 -0.586723
1311877977.920880 0.011974 9.902441 -0.203557
1311877977.921857 0.011974 9.902441 -0.203557
1311877977.925460 -0.263426 9.519276 -0.395140
1311877977.926466 -0.263426 9.519276 -0.395140
1311877977.929854 0.598697 9.279797 -1.065680
1311877977.931030 0.598697 9.279797 -1.065680
1311877977.934493 0.598697 9.423484 -1.520689
1311877977.935465 0.598697 9.423484 -1.520689
1311877977.936733 0.598697 9.423484 -1.520689
1311877977.937723 0.598697 9.423484 -1.520689
1311877977.940859 0.323296 9.279797 -0.969888
1311877977.941980 0.323296 9.279797 -0.969888
1311877977.945464 0.407114 8.992423 -1.353054
1311877977.946589 0.407114 8.992423 -1.353054
1311877977.949749 0.802253 8.705048 -1.879907
1311877977.950858 0.802253 8.705048 -1.879907
1311877977.954499 1.185419 9.184006 -1.736220
1311877977.955572 1.185419 9.184006 -1.736220
1311877977.956718 1.185419 9.184006 -1.736220
1311877977.957704 1.185419 9.184006 -1.736220
1311877977.960832 0.119739 9.471380 -1.113576
1311877977.961974 0.119739 9.471380 -1.113576
1311877977.965605 0.371192 9.088214 -1.448846
1311877977.966596 0.371192 9.088214 -1.448846
1311877977.969716 1.269237 9.423484 -1.736220
1311877977.970858 1.269237 9.423484 -1.736220
1311877977.974458 0.706462 9.567171 -1.209367
1311877977.975452 0.706462 9.567171 -1.209367
1311877977.976735 0.706462 9.567171 -1.209367
1311877977.977696 0.706462 9.567171 -1.209367
1311877977.980843 0.371192 9.662963 -0.586723
1311877977.981870 0.371192 9.662963 -0.586723
1311877977.985617 0.802253 9.088214 -1.209367
1311877977.986595 0.802253 9.088214 -1.209367
1311877977.989835 1.089628 9.088214 -1.448846
1311877977.990689 1.089628 9.088214 -1.448846
1311877977.994483 0.886071 9.662963 -0.778306
1311877977.995467 0.886071 9.662963 -0.778306
1311877977.996706 0.886071 9.662963 -0.778306
1311877977.997818 0.886071 9.662963 -0.778306
1311877978.000723 0.119739 9.279797 -0.730410
1311877978.001836 0.119739 9.279797 -0.730410
1311877978.005497 1.089628 9.040318 -1.353054
1311877978.006601 1.089628 9.040318 -1.353054
1311877978.009737 1.520689 9.375588 -1.496741
1311877978.010736 1.520689 9.375588 -1.496741
1311877978.014324 0.706462 9.519276 -0.969888
1311877978.015310 0.706462 9.519276 -0.969888
1311877978.016567 0.706462 9.519276 -0.969888
1311877978.017731 0.706462 9.519276 -0.969888
1311877978.020849 0.754358 9.088214 -0.778306
1311877978.021833 0.754358 9.088214 -0.778306
1311877978.025485 1.365028 8.800840 -1.736220
1311877978.026600 1.365028 8.800840 -1.736220
1311877978.029836 1.173445 8.896631 -1.448846
1311877978.030962 1.173445 8.896631 -1.448846
1311877978.034457 0.802253 9.279797 -0.754358
1311877978.035447 0.802253 9.279797 -0.754358
1311877978.036826 0.802253 9.279797 -0.754358
1311877978.037744 0.802253 9.279797 -0.754358
1311877978.040861 0.993836 6.406053 0.371192
1311877978.041835 0.993836 6.406053 0.371192
1311877978.045380 1.951751 10.620877 0.778306
1311877978.046463 1.951751 10.620877 0.778306
1311877978.049587 -0.730410 9.519276 -0.586723
1311877978.050754 -0.730410 9.519276 -0.586723
1311877978.051840 -0.730410 9.519276 -0.586723
1311877978.052967 -0.730410 9.519276 -0.586723
1311877978.056858 1.520689 9.088214 -2.287021
1311877978.057846 1.520689 9.088214 -2.287021
1311877978.061604 1.365028 9.854546 -1.448846
1311877978.062585 1.365028 9.854546 -1.448846
1311877978.065961 -0.538827 11.411157 -0.766332
1311877978.067043 -0.538827 11.411157 -0.766332
1311877978.070722 0.227505 10.429294 -1.832012
1311877978.071933 0.227505 10.429294 -1.832012
1311877978.075615 1.173445 10.608903 -4.322589
1311877978.076715 1.173445 10.608903 -4.322589
1311877978.079967 0.407114 9.495328 -5.376295
1311877978.080958 0.407114 9.495328 -5.376295
1311877978.085007 1.161471 10.429294 -3.484414
1311877978.086347 1.161471 10.429294 -3.484414
1311877978.087336 1.161471 10.429294 -3.484414
1311877978.090721 0.119739 8.800840 -2.694135
1311877978.091708 0.119739 8.800840 -2.694135
1311877978.095347 0.023948 7.950691 -4.238772
1311877978.096454 0.023948 7.950691 -4.238772
1311877978.099743 2.418734 8.513465 -4.514172
1311877978.100826 2.418734 8.513465 -4.514172
1311877978.101817 2.418734 8.513465 -4.514172
1311877978.105859 0.419088 9.136110 -1.975699
1311877978.106842 0.419088 9.136110 -1.975699
1311877978.110630 -0.742384 7.938717 -0.778306
1311877978.111597 -0.742384 7.938717 -0.778306
1311877978.114699 1.365028 8.705048 -1.161471
1311877978.115811 1.365028 8.705048 -1.161471
1311877978.119486 1.185419 9.662963 -1.544637
1311877978.120454 1.185419 9.662963 -1.544637
1311877978.121722 1.185419 9.662963 -1.544637
1311877978.122699 1.185419 9.662963 -1.544637
1311877978.125840 -1.077654 10.046129 0.658566
1311877978.127328 -1.077654 10.046129 0.658566
1311877978.130719 0.323296 9.854546 1.089628
1311877978.131702 0.323296 9.854546 1.089628
1311877978.134747 0.407114 9.567171 0.035922
1311877978.135731 0.407114 9.567171 0.035922
1311877978.137667 0.407114 9.567171 0.035922
1311877978.140471 0.227505 9.854546 -0.778306
1311877978.141777 0.227505 9.854546 -0.778306
1311877978.144703 0.407114 10.046129 -0.586723
1311877978.145718 0.407114 10.046129 -0.586723
1311877978.149401 0.119739 8.705048 -0.299348
1311877978.150479 0.119739 8.705048 -0.299348
1311877978.151463 0.119739 8.705048 -0.299348
1311877978.154857 0.395140 8.992423 -1.209367
1311877978.155825 0.395140 8.992423 -1.209367
1311877978.159588 0.802253 9.279797 -1.975699
1311877978.160711 0.802253 9.279797 -1.975699
1311877978.161856 0.802253 9.279797 -1.975699
1311877978.162826 0.802253 9.279797 -1.975699
1311877978.166462 0.023948 9.471380 -1.927803
1311877978.167457 0.023948 9.471380 -1.927803
1311877978.170896 0.119739 9.040318 -2.310969
1311877978.171893 0.119739 9.040318 -2.310969
1311877978.175515 0.407114 9.088214 -2.789926
1311877978.176446 0.407114 9.088214 -2.789926
1311877978.179723 0.598697 9.375588 -2.502552
1311877978.180708 0.598697 9.375588 -2.502552
1311877978.184615 0.227505 9.184006 -1.544637
1311877978.185608 0.227505 9.184006 -1.544637
1311877978.186893 0.227505 9.184006 -1.544637
1311877978.187842 0.227505 9.184006 -1.544637
1311877978.190867 0.023948 8.705048 -1.544637
1311877978.191829 0.023948 8.705048 -1.544637
1311877978.195325 0.993836 9.088214 -1.640429
1311877978.196443 0.993836 9.088214 -1.640429
1311877978.199706 0.502905 9.279797 -1.161471
1311877978.200850 0.502905 9.279797 -1.161471
1311877978.202343 0.502905 9.279797 -1.161471
1311877978.205503 0.023948 9.471380 -0.059870
1311877978.206468 0.023948 9.471380 -0.059870
1311877978.209610 0.119739 9.483354 -0.203557
1311877978.210576 0.119739 9.483354 -0.203557
1311877978.211875 0.119739 9.483354 -0.203557
1311877978.212857 0.119739 9.483354 -0.203557
1311877978.216571 0.227505 9.662963 -0.969888
1311877978.217574 0.227505 9.662963 -0.969888
1311877978.220846 0.407114 10.046129 -0.395140
1311877978.221965 0.407114 10.046129 -0.395140
1311877978.225478 0.047896 9.902441 -0.203557
1311877978.226480 0.047896 9.902441 -0.203557
1311877978.229720 -0.167635 9.375588 -0.778306
1311877978.230857 -0.167635 9.375588 -0.778306
1311877978.234609 0.598697 9.279797 -1.448846
1311877978.235609 0.598697 9.279797 -1.448846
1311877978.236837 0.598697 9.279797 -1.448846
1311877978.238368 0.598697 9.279797 -1.448846
1311877978.241482 0.455009 9.088214 -1.161471
1311877978.242467 0.455009 9.088214 -1.161471
1311877978.245721 0.023948 8.992423 -0.969888
1311877978.246726 0.023948 8.992423 -0.969888
1311877978.250471 0.371192 9.088214 -1.448846
1311877978.251458 0.371192 9.088214 -1.448846
1311877978.254864 0.778306 8.752944 -2.263073
1311877978.255823 0.778306 8.752944 -2.263073
1311877978.259482 0.455009 9.471380 -1.736220
1311877978.260582 0.455009 9.471380 -1.736220
1311877978.261690 0.455009 9.471380 -1.736220
1311877978.262816 0.455009 9.471380 -1.736220
1311877978.266461 0.023948 9.279797 -0.969888
1311877978.267576 0.023948 9.279797 -0.969888
1311877978.270847 0.119739 9.088214 -1.544637
1311877978.271940 0.119739 9.088214 -1.544637
1311877978.275491 0.790279 9.495328 -1.903855
1311877978.276445 0.790279 9.495328 -1.903855
1311877978.279817 0.407114 9.495328 -1.161471
1311877978.280838 0.407114 9.495328 -1.161471
1311877978.284503 0.023948 9.471380 -0.730410
1311877978.285582 0.023948 9.471380 -0.730410
1311877978.286750 0.023948 9.471380 -0.730410
1311877978.287855 0.023948 9.471380 -0.730410
1311877978.291482 0.598697 9.279797 -1.161471
1311877978.292462 0.598697 9.279797 -1.161471
1311877978.295829 1.089628 9.279797 -1.640429
1311877978.296824 1.089628 9.279797 -1.640429
1311877978.300449 0.886071 9.483354 -0.874097
1311877978.301603 0.886071 9.483354 -0.874097
1311877978.304706 0.706462 9.662963 -0.586723
1311877978.305723 0.706462 9.662963 -0.586723
1311877978.309599 0.502905 9.088214 -1.448846
1311877978.310590 0.502905 9.088214 -1.448846
1311877978.311703 0.502905 9.088214 -1.448846
1311877978.312696 0.502905 9.088214 -1.448846
1311877978.315814 1.365028 9.184006 -1.927803
1311877978.316962 1.365028 9.184006 -1.927803
1311877978.320593 0.993836 9.279797 -1.161471
1311877978.321609 0.993836 9.279797 -1.161471
1311877978.324707 0.598697 9.184006 -0.778306
1311877978.325683 0.598697 9.184006 -0.778306
1311877978.329450 0.886071 9.136110 -1.592533
1311877978.330594 0.886071 9.136110 -1.592533
1311877978.331820 0.886071 9.136110 -1.592533
1311877978.332824 0.886071 9.136110 -1.592533
1311877978.335958 1.185419 8.693074 -1.975699
1311877978.336962 1.185419 8.693074 -1.975699
1311877978.340844 0.802253 7.651342 -0.395140
1311877978.341826 0.802253 7.651342 -0.395140
1311877978.345454 0.993836 10.285607 0.850149
1311877978.346434 0.993836 10.285607 0.850149
1311877978.349804 -0.730410 9.184006 -0.682514
1311877978.350823 -0.730410 9.184006 -0.682514
1311877978.354577 1.185419 8.992423 -2.334917
1311877978.355564 1.185419 8.992423 -2.334917
1311877978.356805 1.185419 8.992423 -2.334917
1311877978.357808 1.185419 8.992423 -2.334917
1311877978.361699 0.790279 10.285607 -0.969888
1311877978.362827 0.790279 10.285607 -0.969888
1311877978.365837 -0.167635 10.812460 -0.011974
1311877978.366840 -0.167635 10.812460 -0.011974
1311877978.370611 0.993836 10.189816 -1.161471
1311877978.371578 0.993836 10.189816 -1.161471
1311877978.375478 0.790279 9.279797 -3.460466
1311877978.376479 0.790279 9.279797 -3.460466
1311877978.379695 0.802253 9.136110 -3.652049
1311877978.380694 0.802253 9.136110 -3.652049
1311877978.384752 1.269237 10.333503 -1.544637
1311877978.385741 1.269237 10.333503 -1.544637
1311877978.389320 -0.167635 8.705048 -1.592533
1311877978.390436 -0.167635 8.705048 -1.592533
1311877978.391566 -0.167635 8.705048 -1.592533
1311877978.392712 -0.167635 8.705048 -1.592533
1311877978.396577 2.131360 8.321882 -3.843632
1311877978.397571 2.131360 8.321882 -3.843632
1311877978.401328 1.951751 9.375588 -2.885718
1311877978.402455 1.951751 9.375588 -2.885718
1311877978.405849 -0.347244 8.896631 -0.874097
1311877978.407586 -0.347244 8.896631 -0.874097
1311877978.410484 0.227505 8.369778 -0.778306
1311877978.411586 0.227505 8.369778 -0.778306
1311877978.415322 1.472794 8.273987 -1.879907
1311877978.416307 1.472794 8.273987 -1.879907
1311877978.417464 1.472794 8.273987 -1.879907
1311877978.420991 0.431062 10.237712 -1.113576
1311877978.424578 -0.359218 9.878494 0.275400
1311877978.425441 -0.359218 9.878494 0.275400
1311877978.426699 -0.359218 9.878494 0.275400
1311877978.427818 -0.359218 9.878494 0.275400
1311877978.430834 0.323296 9.471380 -0.107765
1311877978.431822 0.323296 9.471380 -0.107765
1311877978.435596 0.778306 9.662963 -0.969888
1311877978.436640 0.778306 9.662963 -0.969888
1311877978.439725 0.227505 10.429294 -0.778306
1311877978.440842 0.227505 10.429294 -0.778306
1311877978.444475 -0.263426 9.459406 -0.107765
1311877978.445494 -0.263426 9.459406 -0.107765
1311877978.446721 -0.263426 9.459406 -0.107765
1311877978.447696 -0.263426 9.459406 -0.107765
1311877978.451425 0.371192 8.992423 -0.969888
1311877978.452324 0.371192 8.992423 -0.969888
1311877978.453338 0.371192 8.992423 -0.969888
1311877978.456970 0.598697 9.088214 -1.927803
1311877978.457834 0.598697 9.088214 -1.927803
1311877978.461598 0.598697 9.662963 -1.353054
1311877978.462693 0.598697 9.662963 -1.353054
1311877978.465817 -0.059870 9.088214 -1.353054
1311877978.466812 -0.059870 9.088214 -1.353054
1311877978.470721 -0.263426 8.705048 -2.310969
1311877978.471860 -0.263426 8.705048 -2.310969
1311877978.472712 -0.263426 8.705048 -2.310969
1311877978.475829 0.802253 9.567171 -2.789926
1311877978.476823 0.802253 9.567171 -2.789926
1311877978.480583 -0.059870 9.662963 -1.975699
1311877978.481637 -0.059870 9.662963 -1.975699
1311877978.484762 -0.694488 9.279797 -1.592533
1311877978.485724 -0.694488 9.279797 -1.592533
1311877978.489470 0.023948 9.184006 -1.832012
1311877978.490453 0.023948 9.184006 -1.832012
1311877978.491555 0.023948 9.184006 -1.832012
1311877978.492714 0.023948 9.184006 -1.832012
1311877978.495945 0.455009 9.842572 -2.119386
1311877978.496805 0.455009 9.842572 -2.119386
1311877978.500602 -0.167635 9.567171 -0.778306
1311877978.501714 -0.167635 9.567171 -0.778306
1311877978.504856 0.023948 9.471380 -0.443035
1311877978.505880 0.023948 9.471380 -0.443035
1311877978.509495 0.227505 8.992423 -1.113576
1311877978.510593 0.227505 8.992423 -1.113576
1311877978.511722 0.227505 8.992423 -1.113576
1311877978.512725 0.227505 8.992423 -1.113576
1311877978.515830 0.407114 9.842572 -0.969888
1311877978.516805 0.407114 9.842572 -0.969888
1311877978.520487 0.011974 9.567171 -0.395140
1311877978.521597 0.011974 9.567171 -0.395140
1311877978.524704 -0.167635 9.088214 -0.586723
1311877978.525688 -0.167635 9.088214 -0.586723
1311877978.529448 0.802253 9.471380 -1.161471
1311877978.530447 0.802253 9.471380 -1.161471
1311877978.531684 0.802253 9.471380 -1.161471
1311877978.532714 0.802253 9.471380 -1.161471
1311877978.535850 0.323296 9.471380 -1.137524
1311877978.536869 0.323296 9.471380 -1.137524
1311877978.540496 0.119739 9.567171 -0.754358
1311877978.541481 0.119739 9.567171 -0.754358
1311877978.544694 0.407114 9.088214 -1.161471
1311877978.545684 0.407114 9.088214 -1.161471
1311877978.549474 0.598697 9.088214 -1.927803
1311877978.550514 0.598697 9.088214 -1.927803
1311877978.551711 0.598697 9.088214 -1.927803
1311877978.552890 0.598697 9.088214 -1.927803
1311877978.555821 0.598697 9.471380 -1.544637
1311877978.556802 0.598697 9.471380 -1.544637
1311877978.560497 0.407114 9.471380 -1.257263
1311877978.561461 0.407114 9.471380 -1.257263
1311877978.564828 0.407114 9.088214 -1.927803
1311877978.565805 0.407114 9.088214 -1.927803
1311877978.569447 0.993836 9.471380 -2.119386
1311877978.570624 0.993836 9.471380 -2.119386
1311877978.571805 0.993836 9.471380 -2.119386
1311877978.574928 0.598697 9.471380 -1.592533
1311877978.576208 0.598697 9.471380 -1.592533
1311877978.579444 0.431062 9.375588 -1.161471
1311877978.580552 0.431062 9.375588 -1.161471
1311877978.581762 0.431062 9.375588 -1.161471
1311877978.582847 0.431062 9.375588 -1.161471
1311877978.586478 0.993836 9.088214 -1.927803
1311877978.587563 0.993836 9.088214 -1.927803
1311877978.590829 0.993836 9.088214 -1.736220
1311877978.591833 0.993836 9.088214 -1.736220
1311877978.595579 0.993836 9.471380 -0.969888
1311877978.596559 0.993836 9.471380 -0.969888
1311877978.599830 0.598697 9.279797 -0.730410
1311877978.600712 0.598697 9.279797 -0.730410
1311877978.604455 0.802253 8.992423 -1.448846
1311877978.605472 0.802253 8.992423 -1.448846
1311877978.606747 0.802253 8.992423 -1.448846
1311877978.607744 0.802253 8.992423 -1.448846
1311877978.610849 1.185419 9.471380 -1.496741
1311877978.611840 1.185419 9.471380 -1.496741
1311877978.615460 0.778306 9.375588 -1.161471
1311877978.616449 0.778306 9.375588 -1.161471
1311877978.619873 0.802253 9.279797 -0.778306
1311877978.620842 0.802253 9.279797 -0.778306
1311877978.624612 1.089628 9.184006 -1.448846
1311877978.625604 1.089628 9.184006 -1.448846
1311877978.626697 1.089628 9.184006 -1.448846
1311877978.629691 1.089628 9.088214 -1.927803
1311877978.630815 1.089628 9.088214 -1.927803
1311877978.634474 0.993836 9.471380 -1.209367
1311877978.635626 0.993836 9.471380 -1.209367
1311877978.636705 0.993836 9.471380 -1.209367
1311877978.638945 0.993836 9.471380 -1.209367
1311877978.641335 0.407114 9.088214 -1.113576
1311877978.642464 0.407114 9.088214 -1.113576
1311877978.645757 0.802253 9.076240 -1.915829
1311877978.646811 0.802253 9.076240 -1.915829
1311877978.650487 1.089628 9.279797 -1.927803
1311877978.651460 1.089628 9.279797 -1.927803
1311877978.654735 0.598697 9.471380 -1.544637
1311877978.655812 0.598697 9.471380 -1.544637
1311877978.657311 0.598697 9.471380 -1.544637
1311877978.660482 0.455009 9.471380 -1.161471
1311877978.661427 0.455009 9.471380 -1.161471
1311877978.664819 0.790279 9.279797 -1.544637
1311877978.665806 0.790279 9.279797 -1.544637
1311877978.669324 0.802253 9.088214 -1.592533
1311877978.670445 0.802253 9.088214 -1.592533
1311877978.671638 0.802253 9.088214 -1.592533
1311877978.672735 0.802253 9.088214 -1.592533
1311877978.676217 0.502905 9.459406 -0.874097
1311877978.677386 0.502905 9.459406 -0.874097
1311877978.680591 0.227505 9.279797 -1.161471
1311877978.681743 0.227505 9.279797 -1.161471
1311877978.684734 0.598697 9.088214 -1.544637
1311877978.685704 0.598697 9.088214 -1.544637
1311877978.689440 0.802253 9.495328 -1.736220
1311877978.690467 0.802253 9.495328 -1.736220
1311877978.691581 0.802253 9.495328 -1.736220
1311877978.692677 0.802253 9.495328 -1.736220
1311877978.695940 0.047896 9.279797 -1.065680
1311877978.696931 0.047896 9.279797 -1.065680
1311877978.700459 0.323296 9.375588 -0.969888
1311877978.701456 0.323296 9.375588 -0.969888
1311877978.704869 0.502905 9.375588 -1.353054
1311877978.705996 0.502905 9.375588 -1.353054
1311877978.709713 0.323296 9.279797 -1.927803
1311877978.710601 0.323296 9.279797 -1.927803
1311877978.711584 0.323296 9.279797 -1.927803
1311877978.714851 0.323296 9.567171 -1.257263
1311877978.715800 0.323296 9.567171 -1.257263
1311877978.719456 0.227505 9.471380 -1.353054
1311877978.720632 0.227505 9.471380 -1.353054
1311877978.721706 0.227505 9.471380 -1.353054
1311877978.722836 0.227505 9.471380 -1.353054
1311877978.725812 0.227505 9.375588 -1.927803
1311877978.726846 0.227505 9.375588 -1.927803
1311877978.730569 0.502905 9.423484 -1.736220
1311877978.731586 0.502905 9.423484 -1.736220
1311877978.734737 0.035922 9.471380 -1.448846
1311877978.735714 0.035922 9.471380 -1.448846
1311877978.739446 -0.347244 9.447432 -1.353054
1311877978.740446 -0.347244 9.447432 -1.353054
1311877978.741699 -0.347244 9.447432 -1.353054
1311877978.742686 -0.347244 9.447432 -1.353054
1311877978.745840 0.371192 9.423484 -1.879907
1311877978.746926 0.371192 9.423484 -1.879907
1311877978.750489 0.023948 9.471380 -1.832012
1311877978.751583 0.023948 9.471380 -1.832012
1311877978.754830 0.023948 9.567171 -1.161471
1311877978.755850 0.023948 9.567171 -1.161471
1311877978.759467 -0.167635 9.567171 -1.209367
1311877978.760457 -0.167635 9.567171 -1.209367
1311877978.761687 -0.167635 9.567171 -1.209367
1311877978.763646 -0.167635 9.567171 -1.209367
1311877978.765866 0.047896 9.459406 -1.927803
1311877978.767335 0.047896 9.459406 -1.927803
1311877978.770574 0.071844 9.662963 -1.544637
1311877978.771685 0.071844 9.662963 -1.544637
1311877978.774717 -0.263426 9.662963 -1.161471
1311877978.775809 -0.263426 9.662963 -1.161471
1311877978.779389 0.119739 9.471380 -1.161471
1311877978.780318 0.119739 9.471380 -1.161471
1311877978.781628 0.119739 9.471380 -1.161471
1311877978.782755 0.119739 9.471380 -1.161471
1311877978.786066 0.407114 9.279797 -1.544637
1311877978.789320 0.407114 9.184006 -1.544637
1311877978.790429 0.407114 9.184006 -1.544637
1311877978.791550 0.407114 9.184006 -1.544637
1311877978.792552 0.407114 9.184006 -1.544637
1311877978.796316 0.419088 9.495328 -0.730410
1311877978.799463 0.598697 9.447432 -0.969888
1311877978.800561 0.598697 9.447432 -0.969888
1311877978.801689 0.598697 9.447432 -0.969888
1311877978.802829 0.598697 9.447432 -0.969888
1311877978.806468 0.802253 9.279797 -1.640429
1311877978.807589 0.802253 9.279797 -1.640429
1311877978.810823 0.993836 9.471380 -1.353054
1311877978.811815 0.993836 9.471380 -1.353054
1311877978.815455 0.407114 9.279797 -0.874097
1311877978.816431 0.407114 9.279797 -0.874097
1311877978.819756 0.323296 9.279797 -1.065680
1311877978.820720 0.323296 9.279797 -1.065680
1311877978.824449 0.802253 9.423484 -1.448846
1311877978.825440 0.802253 9.423484 -1.448846
1311877978.826694 0.802253 9.423484 -1.448846
1311877978.827684 0.802253 9.423484 -1.448846
1311877978.830942 0.754358 9.184006 -1.640429
1311877978.831801 0.754358 9.184006 -1.640429
1311877978.835568 0.886071 9.471380 -0.969888
1311877978.837270 0.886071 9.471380 -0.969888
1311877978.839837 0.502905 9.471380 -0.802253
1311877978.840723 0.502905 9.471380 -0.802253
1311877978.844484 0.598697 9.088214 -1.496741
1311877978.845435 0.598697 9.088214 -1.496741
1311877978.846675 0.598697 9.088214 -1.496741
1311877978.847798 0.598697 9.088214 -1.496741
1311877978.850888 0.993836 9.423484 -1.736220
1311877978.851849 0.993836 9.423484 -1.736220
1311877978.855564 0.754358 9.088214 -1.161471
1311877978.856452 0.754358 9.088214 -1.161471
1311877978.859690 0.598697 9.136110 -0.778306
1311877978.860825 0.598697 9.136110 -0.778306
1311877978.864480 0.802253 9.423484 -1.161471
1311877978.865457 0.802253 9.423484 -1.161471
1311877978.866714 0.802253 9.423484 -1.161471
1311877978.867693 0.802253 9.423484 -1.161471
1311877978.870935 0.993836 8.896631 -1.736220
1311877978.871945 0.993836 8.896631 -1.736220
1311877978.875723 0.993836 9.279797 -0.802253
1311877978.876698 0.993836 9.279797 -0.802253
1311877978.879855 0.431062 9.184006 -0.395140
1311877978.880817 0.431062 9.184006 -0.395140
1311877978.884590 0.407114 9.088214 -1.137524
1311877978.885606 0.407114 9.088214 -1.137524
1311877978.886920 0.407114 9.088214 -1.137524
1311877978.887892 0.407114 9.088214 -1.137524
1311877978.891475 1.173445 9.375588 -1.736220
1311877978.892472 1.173445 9.375588 -1.736220
1311877978.895820 0.598697 9.423484 -1.257263
1311877978.896807 0.598697 9.423484 -1.257263
1311877978.900441 0.227505 9.423484 -0.682514
1311877978.901635 0.227505 9.423484 -0.682514
1311877978.904879 0.502905 9.519276 -1.209367
1311877978.905817 0.502905 9.519276 -1.209367
1311877978.907130 0.502905 9.519276 -1.209367
1311877978.910701 0.790279 9.064266 -2.119386
1311877978.911724 0.790279 9.064266 -2.119386
1311877978.915301 0.598697 9.662963 -1.520689
1311877978.916426 0.598697 9.662963 -1.520689
1311877978.919827 0.227505 9.471380 -0.874097
1311877978.920715 0.227505 9.471380 -0.874097
1311877978.924472 0.047896 9.375588 -1.353054
1311877978.925453 0.047896 9.375588 -1.353054
1311877978.926692 0.047896 9.375588 -1.353054
1311877978.927678 0.047896 9.375588 -1.353054
1311877978.931322 0.802253 9.375588 -2.406760
1311877978.932311 0.802253 9.375588 -2.406760
1311877978.933318 0.802253 9.375588 -2.406760
1311877978.936821 0.407114 9.447432 -1.532663
1311877978.937838 0.407114 9.447432 -1.532663
1311877978.941585 0.071844 9.483354 -0.778306
1311877978.942684 0.071844 9.483354 -0.778306
1311877978.945951 0.119739 9.279797 -1.736220
1311877978.947353 0.119739 9.279797 -1.736220
1311877978.950710 0.598697 8.992423 -2.502552
1311877978.951826 0.598697 8.992423 -2.502552
1311877978.955561 0.502905 9.567171 -1.544637
1311877978.956421 0.502905 9.567171 -1.544637
1311877978.959816 -0.059870 9.662963 -0.586723
1311877978.960968 -0.059870 9.662963 -0.586723
1311877978.964582 -0.347244 9.184006 -1.353054
1311877978.965675 -0.347244 9.184006 -1.353054
1311877978.966815 -0.347244 9.184006 -1.353054
1311877978.967939 -0.347244 9.184006 -1.353054
1311877978.971582 0.993836 9.471380 -2.406760
1311877978.972697 0.993836 9.471380 -2.406760
1311877978.975978 0.023948 9.519276 -1.544637
1311877978.977387 0.023948 9.519276 -1.544637
1311877978.980705 -0.167635 9.662963 -0.490931
1311877978.981700 -0.167635 9.662963 -0.490931
1311877978.985502 0.011974 9.519276 -1.448846
1311877978.986571 0.011974 9.519276 -1.448846
1311877978.989811 0.598697 9.088214 -2.502552
1311877978.990924 0.598697 9.088214 -2.502552
1311877978.994565 0.598697 9.662963 -2.023594
1311877978.995677 0.598697 9.662963 -2.023594
1311877978.996802 0.598697 9.662963 -2.023594
1311877978.997798 0.598697 9.662963 -2.023594
1311877979.001574 0.227505 9.184006 -0.778306
1311877979.002949 0.227505 9.184006 -0.778306
1311877979.006350 0.023948 8.992423 -1.544637
1311877979.009565 0.886071 8.896631 -2.119386
1311877979.010554 0.886071 8.896631 -2.119386
1311877979.011737 0.886071 8.896631 -2.119386
1311877979.012829 0.886071 8.896631 -2.119386
1311877979.015925 0.790279 9.483354 -1.496741
1311877979.016941 0.790279 9.483354 -1.496741
1311877979.020805 0.227505 9.279797 -0.395140
1311877979.021697 0.227505 9.279797 -0.395140
1311877979.025483 0.395140 9.112162 -0.969888
1311877979.026438 0.395140 9.112162 -0.969888
1311877979.029944 1.137524 8.728996 -1.975699
1311877979.030924 1.137524 8.728996 -1.975699
1311877979.034686 0.886071 9.806650 -1.736220
1311877979.035597 0.886071 9.806650 -1.736220
1311877979.036852 0.886071 9.806650 -1.736220
1311877979.037811 0.886071 9.806650 -1.736220
1311877979.041611 0.023948 9.100188 -0.682514
1311877979.042706 0.023948 9.100188 -0.682514
1311877979.045860 0.407114 9.088214 -1.448846
1311877979.047306 0.407114 9.088214 -1.448846
1311877979.050654 1.185419 9.375588 -2.263073
1311877979.051702 1.185419 9.375588 -2.263073
1311877979.054703 0.598697 9.567171 -1.927803
1311877979.055824 0.598697 9.567171 -1.927803
1311877979.059432 0.071844 9.279797 -1.161471
1311877979.060419 0.071844 9.279797 -1.161471
1311877979.061830 0.071844 9.279797 -1.161471
1311877979.062683 0.071844 9.279797 -1.161471
1311877979.065942 0.323296 9.088214 -1.879907
1311877979.067361 0.323296 9.088214 -1.879907
1311877979.070694 0.802253 9.088214 -2.682161
1311877979.071687 0.802253 9.088214 -2.682161
1311877979.075467 0.802253 9.854546 -1.927803
1311877979.076447 0.802253 9.854546 -1.927803
1311877979.079690 0.323296 9.375588 -1.113576
1311877979.080673 0.323296 9.375588 -1.113576
1311877979.084498 -0.059870 9.088214 -1.568585
1311877979.085436 -0.059870 9.088214 -1.568585
1311877979.086746 -0.059870 9.088214 -1.568585
1311877979.087699 -0.059870 9.088214 -1.568585
1311877979.090956 1.137524 9.495328 -2.263073
1311877979.091943 1.137524 9.495328 -2.263073
1311877979.095560 0.395140 9.279797 -1.544637
1311877979.096548 0.395140 9.279797 -1.544637
1311877979.099815 -0.167635 9.184006 -0.586723
1311877979.100938 -0.167635 9.184006 -0.586723
1311877979.104565 0.407114 9.375588 -1.161471
1311877979.105701 0.407114 9.375588 -1.161471
1311877979.106830 0.407114 9.375588 -1.161471
1311877979.107831 0.407114 9.375588 -1.161471
1311877979.111605 0.598697 9.279797 -1.939777
1311877979.112583 0.598697 9.279797 -1.939777
1311877979.116341 0.407114 9.662963 -0.969888
1311877979.117298 0.407114 9.662963 -0.969888
1311877979.118458 0.407114 9.662963 -0.969888
1311877979.121693 -0.263426 9.375588 -0.778306
1311877979.122865 -0.263426 9.375588 -0.778306
1311877979.125984 0.227505 9.088214 -1.736220
1311877979.127667 0.227505 9.088214 -1.736220
1311877979.130560 0.706462 9.471380 -2.263073
1311877979.131672 0.706462 9.471380 -2.263073
1311877979.134817 0.047896 9.519276 -1.544637
1311877979.135837 0.047896 9.519276 -1.544637
1311877979.139581 -0.059870 9.471380 -0.969888
1311877979.140459 -0.059870 9.471380 -0.969888
1311877979.141762 -0.059870 9.471380 -0.969888
1311877979.142841 -0.059870 9.471380 -0.969888
1311877979.145931 0.455009 9.375588 -1.939777
1311877979.147290 0.455009 9.375588 -1.939777
1311877979.150589 0.455009 9.279797 -2.310969
1311877979.151886 0.455009 9.279797 -2.310969
1311877979.154937 0.407114 9.495328 -1.520689
1311877979.155795 0.407114 9.495328 -1.520689
1311877979.159449 0.071844 9.279797 -0.969888
1311877979.160447 0.071844 9.279797 -0.969888
1311877979.161682 0.071844 9.279797 -0.969888
1311877979.162814 0.071844 9.279797 -0.969888
1311877979.166563 0.407114 9.088214 -1.927803
1311877979.167551 0.407114 9.088214 -1.927803
1311877979.170813 0.886071 9.519276 -2.119386
1311877979.171822 0.886071 9.519276 -2.119386
1311877979.175578 0.227505 9.423484 -1.161471
1311877979.176557 0.227505 9.423484 -1.161471
1311877979.179723 0.023948 9.279797 -0.826201
1311877979.180718 0.023948 9.279797 -0.826201
1311877979.184637 0.502905 9.279797 -1.544637
1311877979.185588 0.502905 9.279797 -1.544637
1311877979.186762 0.502905 9.279797 -1.544637
1311877979.189831 0.598697 9.279797 -2.119386
1311877979.190804 0.598697 9.279797 -2.119386
1311877979.194566 0.323296 9.471380 -1.257263
1311877979.195670 0.323296 9.471380 -1.257263
1311877979.196797 0.323296 9.471380 -1.257263
1311877979.197923 0.323296 9.471380 -1.257263
1311877979.201436 0.023948 9.279797 -1.161471
1311877979.202443 0.023948 9.279797 -1.161471
1311877979.205828 0.407114 9.136110 -1.879907
1311877979.206825 0.407114 9.136110 -1.879907
1311877979.210464 0.802253 9.758754 -1.927803
1311877979.211454 0.802253 9.758754 -1.927803
1311877979.214824 0.407114 9.447432 -1.161471
1311877979.215813 0.407114 9.447432 -1.161471
1311877979.219447 0.071844 9.112162 -0.826201
1311877979.220491 0.071844 9.112162 -0.826201
1311877979.221693 0.071844 9.112162 -0.826201
1311877979.222767 0.071844 9.112162 -0.826201
1311877979.225968 0.814227 9.279797 -1.640429
1311877979.228173 0.814227 9.279797 -1.640429
1311877979.230700 0.706462 9.088214 -1.832012
1311877979.231560 0.706462 9.088214 -1.832012
1311877979.234817 0.598697 9.279797 -1.161471
1311877979.235818 0.598697 9.279797 -1.161471
1311877979.239476 0.419088 9.375588 -0.969888
1311877979.240457 0.419088 9.375588 -0.969888
1311877979.241717 0.419088 9.375588 -0.969888
1311877979.242696 0.419088 9.375588 -0.969888
1311877979.246321 0.802253 9.136110 -1.927803
1311877979.249459 1.089628 9.519276 -1.951751
1311877979.250566 1.089628 9.519276 -1.951751
1311877979.251850 1.089628 9.519276 -1.951751
1311877979.252866 1.089628 9.519276 -1.951751
1311877979.255932 0.227505 9.519276 -1.209367
1311877979.256918 0.227505 9.519276 -1.209367
1311877979.260441 0.323296 9.375588 -1.161471
1311877979.261572 0.323296 9.375588 -1.161471
1311877979.264806 0.838175 9.471380 -1.879907
1311877979.265794 0.838175 9.471380 -1.879907
1311877979.269465 0.598697 9.375588 -1.927803
1311877979.270564 0.598697 9.375588 -1.927803
1311877979.271686 0.598697 9.375588 -1.927803
1311877979.272691 0.598697 9.375588 -1.927803
1311877979.276374 0.455009 9.471380 -0.969888
1311877979.277337 0.455009 9.471380 -0.969888
1311877979.278431 0.455009 9.471380 -0.969888
1311877979.281714 0.407114 8.992423 -1.257263
1311877979.282701 0.407114 8.992423 -1.257263
1311877979.285849 0.754358 8.992423 -1.736220
1311877979.286974 0.754358 8.992423 -1.736220
1311877979.290574 0.802253 9.471380 -0.969888
1311877979.291689 0.802253 9.471380 -0.969888
1311877979.294805 0.407114 9.279797 -0.490931
1311877979.295794 0.407114 9.279797 -0.490931
1311877979.299431 0.227505 9.064266 -0.874097
1311877979.300433 0.227505 9.064266 -0.874097
1311877979.301695 0.227505 9.064266 -0.874097
1311877979.302808 0.227505 9.064266 -0.874097
1311877979.305822 1.137524 9.459406 -1.353054
1311877979.306839 1.137524 9.459406 -1.353054
1311877979.310436 0.407114 9.423484 -0.969888
1311877979.311549 0.407114 9.423484 -0.969888
1311877979.314821 0.407114 9.375588 -0.419088
1311877979.315787 0.407114 9.375588 -0.419088
1311877979.319497 0.502905 9.279797 -0.730410
1311877979.320434 0.502905 9.279797 -0.730410
1311877979.321699 0.502905 9.279797 -0.730410
1311877979.322864 0.502905 9.279797 -0.730410
1311877979.326918 0.802253 9.447432 -1.544637
1311877979.329689 0.838175 9.806650 -1.161471
1311877979.330685 0.838175 9.806650 -1.161471
1311877979.331940 0.838175 9.806650 -1.161471
1311877979.333316 0.838175 9.806650 -1.161471
1311877979.336582 0.071844 9.184006 -1.161471
1311877979.337688 0.071844 9.184006 -1.161471
1311877979.340967 0.802253 9.088214 -1.592533
1311877979.344319 1.185419 9.375588 -1.927803
1311877979.345434 1.185419 9.375588 -1.927803
1311877979.346679 1.185419 9.375588 -1.927803
1311877979.347675 1.185419 9.375588 -1.927803
1311877979.350960 0.407114 9.279797 -1.209367
1311877979.352377 0.407114 9.279797 -1.209367
1311877979.355585 0.598697 9.088214 -1.161471
1311877979.356539 0.598697 9.088214 -1.161471
1311877979.359803 0.802253 9.184006 -1.544637
1311877979.360793 0.802253 9.184006 -1.544637
1311877979.364432 0.802253 9.279797 -1.832012
1311877979.365418 0.802253 9.279797 -1.832012
1311877979.366670 0.802253 9.279797 -1.832012
1311877979.367673 0.802253 9.279797 -1.832012
1311877979.370936 0.598697 9.471380 -1.161471
1311877979.371948 0.598697 9.471380 -1.161471
1311877979.375461 0.407114 9.088214 -1.161471
1311877979.376595 0.407114 9.088214 -1.161471
1311877979.379815 0.598697 9.088214 -1.496741
1311877979.380813 0.598697 9.088214 -1.496741
1311877979.384456 0.886071 9.471380 -1.353054
1311877979.385428 0.886071 9.471380 -1.353054
1311877979.386671 0.886071 9.471380 -1.353054
1311877979.387668 0.886071 9.471380 -1.353054
1311877979.390854 0.227505 9.088214 -0.969888
1311877979.391937 0.227505 9.088214 -0.969888
1311877979.395436 0.502905 9.279797 -1.161471
1311877979.396547 0.502905 9.279797 -1.161471
1311877979.399810 0.790279 9.375588 -1.832012
1311877979.400921 0.790279 9.375588 -1.832012
1311877979.404460 0.407114 9.375588 -1.736220
1311877979.405430 0.407114 9.375588 -1.736220
1311877979.406696 0.407114 9.375588 -1.736220
1311877979.407810 0.407114 9.375588 -1.736220
1311877979.410817 0.407114 9.483354 -1.185419
1311877979.411935 0.407114 9.483354 -1.185419
1311877979.415558 0.323296 9.279797 -1.568585
1311877979.416548 0.323296 9.279797 -1.568585
1311877979.419915 0.227505 9.423484 -1.927803
1311877979.421338 0.227505 9.423484 -1.927803
1311877979.424429 0.502905 9.471380 -1.568585
1311877979.425421 0.502905 9.471380 -1.568585
1311877979.426798 0.502905 9.471380 -1.568585
1311877979.427791 0.502905 9.471380 -1.568585
1311877979.431433 0.023948 9.279797 -1.353054
1311877979.432497 0.023948 9.279797 -1.353054
1311877979.435695 0.227505 9.279797 -1.448846
1311877979.436737 0.227505 9.279797 -1.448846
1311877979.439750 0.407114 9.279797 -1.832012
1311877979.440816 0.407114 9.279797 -1.832012
1311877979.444342 0.227505 9.279797 -1.736220
1311877979.445595 0.227505 9.279797 -1.736220
1311877979.446662 0.227505 9.279797 -1.736220
1311877979.447662 0.227505 9.279797 -1.736220
1311877979.450968 0.227505 9.471380 -1.113576
1311877979.451934 0.227505 9.471380 -1.113576
1311877979.455574 0.227505 9.088214 -1.448846
1311877979.456575 0.227505 9.088214 -1.448846
1311877979.459698 0.227505 9.279797 -1.640429
1311877979.460784 0.227505 9.279797 -1.640429
1311877979.464461 0.407114 9.471380 -1.556611
1311877979.465461 0.407114 9.471380 -1.556611
1311877979.466575 0.407114 9.471380 -1.556611
1311877979.467693 0.407114 9.471380 -1.556611
1311877979.470849 0.023948 9.279797 -1.257263
1311877979.471786 0.023948 9.279797 -1.257263
1311877979.475448 0.227505 9.471380 -1.496741
1311877979.476426 0.227505 9.471380 -1.496741
1311877979.480494 0.407114 9.471380 -1.520689
1311877979.481375 0.407114 9.471380 -1.520689
1311877979.482462 0.407114 9.471380 -1.520689
1311877979.485682 0.227505 9.423484 -1.544637
1311877979.486674 0.227505 9.423484 -1.544637
1311877979.489813 0.371192 9.447432 -1.065680
1311877979.491090 0.371192 9.447432 -1.065680
1311877979.494495 0.119739 9.279797 -1.161471
1311877979.495583 0.119739 9.279797 -1.161471
1311877979.496669 0.119739 9.279797 -1.161471
1311877979.497800 0.119739 9.279797 -1.161471
1311877979.500932 0.407114 9.279797 -1.544637
1311877979.501803 0.407114 9.279797 -1.544637
1311877979.505442 0.598697 9.483354 -1.448846
1311877979.506447 0.598697 9.483354 -1.448846
1311877979.509696 0.227505 9.279797 -1.161471
1311877979.510690 0.227505 9.279797 -1.161471
1311877979.514302 0.407114 9.375588 -1.448846
1311877979.515284 0.407114 9.375588 -1.448846
1311877979.516557 0.407114 9.375588 -1.448846
1311877979.517695 0.407114 9.375588 -1.448846
1311877979.520835 0.455009 9.279797 -1.736220
1311877979.521851 0.455009 9.279797 -1.736220
1311877979.525301 0.407114 9.279797 -1.544637
1311877979.526437 0.407114 9.279797 -1.544637
1311877979.529684 0.598697 9.423484 -1.257263
1311877979.530666 0.598697 9.423484 -1.257263
1311877979.534460 0.407114 9.279797 -1.520689
1311877979.535303 0.407114 9.279797 -1.520689
1311877979.536684 0.407114 9.279797 -1.520689
1311877979.537592 0.407114 9.279797 -1.520689
1311877979.540868 0.598697 9.279797 -1.879907
1311877979.541819 0.598697 9.279797 -1.879907
1311877979.545472 0.802253 9.471380 -1.353054
1311877979.546554 0.802253 9.471380 -1.353054
1311877979.549733 0.323296 9.279797 -1.353054
1311877979.550710 0.323296 9.279797 -1.353054
1311877979.552394 0.323296 9.279797 -1.353054
1311877979.555581 0.407114 9.184006 -1.568585
1311877979.556561 0.407114 9.184006 -1.568585
1311877979.559690 0.802253 9.279797 -1.640429
1311877979.560692 0.802253 9.279797 -1.640429
1311877979.564306 0.598697 9.471380 -1.353054
1311877979.565428 0.598697 9.471380 -1.353054
1311877979.566689 0.598697 9.471380 -1.353054
1311877979.567671 0.598697 9.471380 -1.353054
1311877979.570809 0.407114 9.471380 -1.161471
1311877979.571797 0.407114 9.471380 -1.161471
1311877979.575471 0.598697 9.088214 -1.556611
1311877979.576575 0.598697 9.088214 -1.556611
1311877979.579788 0.802253 9.184006 -1.592533
1311877979.580659 0.802253 9.184006 -1.592533
1311877979.584465 0.802253 9.519276 -1.161471
1311877979.585432 0.802253 9.519276 -1.161471
1311877979.586720 0.802253 9.519276 -1.161471
1311877979.587798 0.802253 9.519276 -1.161471
1311877979.590940 0.119739 9.088214 -1.448846
1311877979.591801 0.119739 9.088214 -1.448846
1311877979.595591 0.802253 9.088214 -1.832012
1311877979.596416 0.802253 9.088214 -1.832012
1311877979.599688 1.089628 9.471380 -1.592533
1311877979.600668 1.089628 9.471380 -1.592533
1311877979.604440 0.227505 9.375588 -1.161471
1311877979.605475 0.227505 9.375588 -1.161471
1311877979.606706 0.227505 9.375588 -1.161471
1311877979.607677 0.227505 9.375588 -1.161471
1311877979.610885 0.598697 9.279797 -1.353054
1311877979.611849 0.598697 9.279797 -1.353054
1311877979.615448 0.802253 9.088214 -1.736220
1311877979.616458 0.802253 9.088214 -1.736220
1311877979.619679 0.431062 9.471380 -1.568585
1311877979.620711 0.431062 9.471380 -1.568585
1311877979.624440 0.371192 9.567171 -0.778306
1311877979.625557 0.371192 9.567171 -0.778306
1311877979.626684 0.371192 9.567171 -0.778306
1311877979.627667 0.371192 9.567171 -0.778306
1311877979.630956 0.227505 9.088214 -1.448846
1311877979.632289 0.227505 9.088214 -1.448846
1311877979.635552 0.802253 9.279797 -1.736220
1311877979.636569 0.802253 9.279797 -1.736220
1311877979.639816 0.598697 9.519276 -1.161471
1311877979.640929 0.598697 9.519276 -1.161471
1311877979.644426 0.047896 9.375588 -0.969888
1311877979.645432 0.047896 9.375588 -0.969888
1311877979.646676 0.047896 9.375588 -0.969888
1311877979.647671 0.047896 9.375588 -0.969888
1311877979.650967 0.778306 9.279797 -1.544637
1311877979.651988 0.778306 9.279797 -1.544637
1311877979.655556 0.802253 9.375588 -1.927803
1311877979.656548 0.802253 9.375588 -1.927803
1311877979.659816 0.407114 9.279797 -1.257263
1311877979.660791 0.407114 9.279797 -1.257263
1311877979.664431 0.407114 9.423484 -0.874097
1311877979.665415 0.407114 9.423484 -0.874097
1311877979.666678 0.407114 9.423484 -0.874097
1311877979.667661 0.407114 9.423484 -0.874097
1311877979.671429 0.502905 8.992423 -1.927803
1311877979.672295 0.502905 8.992423 -1.927803
1311877979.675660 0.993836 9.279797 -1.927803
1311877979.676565 0.993836 9.279797 -1.927803
1311877979.679845 0.802253 9.483354 -1.257263
1311877979.680822 0.802253 9.483354 -1.257263
1311877979.684448 0.431062 9.088214 -0.969888
1311877979.685430 0.431062 9.088214 -0.969888
1311877979.686674 0.431062 9.088214 -0.969888
1311877979.687658 0.431062 9.088214 -0.969888
1311877979.691306 0.802253 9.088214 -1.879907
1311877979.692436 0.802253 9.088214 -1.879907
1311877979.693283 0.802253 9.088214 -1.879907
1311877979.696673 0.598697 9.088214 -1.832012
1311877979.697666 0.598697 9.088214 -1.832012
1311877979.700934 0.598697 9.375588 -1.161471
1311877979.701807 0.598697 9.375588 -1.161471
1311877979.705457 0.407114 9.471380 -0.969888
1311877979.707710 0.407114 9.471380 -0.969888
1311877979.709718 0.227505 9.184006 -1.556611
1311877979.710816 0.227505 9.184006 -1.556611
1311877979.714442 0.790279 9.423484 -1.927803
1311877979.715428 0.790279 9.423484 -1.927803
1311877979.716689 0.790279 9.423484 -1.927803
1311877979.717727 0.790279 9.423484 -1.927803
1311877979.720939 0.323296 9.662963 -1.161471
1311877979.721935 0.323296 9.662963 -1.161471
1311877979.725558 -0.059870 9.279797 -1.161471
1311877979.726546 -0.059870 9.279797 -1.161471
1311877979.729670 0.455009 9.471380 -1.544637
1311877979.730796 0.455009 9.471380 -1.544637
1311877979.734560 0.598697 9.184006 -2.119386
1311877979.735409 0.598697 9.184006 -2.119386
1311877979.736696 0.598697 9.184006 -2.119386
1311877979.737789 0.598697 9.184006 -2.119386
1311877979.740995 0.119739 9.279797 -1.161471
1311877979.742339 0.119739 9.279797 -1.161471
1311877979.745442 0.395140 9.184006 -1.161471
1311877979.746565 0.395140 9.184006 -1.161471
1311877979.749739 0.502905 9.040318 -1.736220
1311877979.750848 0.502905 9.040318 -1.736220
1311877979.754436 0.598697 9.088214 -1.832012
1311877979.755427 0.598697 9.088214 -1.832012
1311877979.756680 0.598697 9.088214 -1.832012
1311877979.757700 0.598697 9.088214 -1.832012
1311877979.760829 0.227505 9.184006 -1.161471
1311877979.761786 0.227505 9.184006 -1.161471
1311877979.765425 0.227505 8.896631 -1.161471
1311877979.766418 0.227505 8.896631 -1.161471
1311877979.769679 0.407114 9.184006 -1.544637
1311877979.770796 0.407114 9.184006 -1.544637
1311877979.774459 0.431062 9.375588 -1.592533
1311877979.775297 0.431062 9.375588 -1.592533
1311877979.776549 0.431062 9.375588 -1.592533
1311877979.777794 0.431062 9.375588 -1.592533
1311877979.780832 0.035922 9.279797 -1.161471
1311877979.781813 0.035922 9.279797 -1.161471
1311877979.785436 0.227505 9.471380 -1.640429
1311877979.786590 0.227505 9.471380 -1.640429
1311877979.789666 0.227505 9.459406 -2.119386
1311877979.790787 0.227505 9.459406 -2.119386
1311877979.794463 0.227505 9.495328 -2.215177
1311877979.795416 0.227505 9.495328 -2.215177
1311877979.796700 0.227505 9.495328 -2.215177
1311877979.797662 0.227505 9.495328 -2.215177
1311877979.800811 0.035922 9.567171 -1.879907
1311877979.801927 0.035922 9.567171 -1.879907
1311877979.805470 0.227505 9.279797 -2.310969
1311877979.806608 0.227505 9.279797 -2.310969
1311877979.809712 0.802253 9.519276 -2.310969
1311877979.810691 0.802253 9.519276 -2.310969
1311877979.814304 0.407114 9.447432 -2.502552
1311877979.815285 0.407114 9.447432 -2.502552
1311877979.816535 0.407114 9.447432 -2.502552
1311877979.817531 0.407114 9.447432 -2.502552
1311877979.820857 0.371192 9.279797 -2.263073
1311877979.821820 0.371192 9.279797 -2.263073
1311877979.825427 0.706462 9.471380 -2.263073
1311877979.826401 0.706462 9.471380 -2.263073
1311877979.829566 0.431062 9.088214 -2.406760
1311877979.830672 0.431062 9.088214 -2.406760
1311877979.831920 0.431062 9.088214 -2.406760
1311877979.832911 0.431062 9.088214 -2.406760
1311877979.836674 0.598697 9.567171 -1.832012
1311877979.837671 0.598697 9.567171 -1.832012
1311877979.840853 0.407114 9.279797 -1.736220
1311877979.841806 0.407114 9.279797 -1.736220
1311877979.845441 0.227505 9.279797 -2.215177
1311877979.846422 0.227505 9.279797 -2.215177
1311877979.849833 0.598697 9.471380 -1.640429
1311877979.850808 0.598697 9.471380 -1.640429
1311877979.854440 0.407114 9.471380 -1.544637
1311877979.855439 0.407114 9.471380 -1.544637
1311877979.856704 0.407114 9.471380 -1.544637
1311877979.857692 0.407114 9.471380 -1.544637
1311877979.860894 0.119739 9.471380 -1.161471
1311877979.861829 0.119739 9.471380 -1.161471
1311877979.865549 0.598697 9.471380 -1.832012
1311877979.866668 0.598697 9.471380 -1.832012
1311877979.869702 0.419088 9.279797 -1.927803
1311877979.870674 0.419088 9.279797 -1.927803
1311877979.874439 0.227505 9.483354 -1.448846
1311877979.875462 0.227505 9.483354 -1.448846
1311877979.876685 0.227505 9.483354 -1.448846
1311877979.879037 0.227505 9.483354 -1.448846
1311877979.880804 0.407114 9.279797 -1.736220
1311877979.881782 0.407114 9.279797 -1.736220
1311877979.885561 0.598697 9.112162 -2.215177
1311877979.886554 0.598697 9.112162 -2.215177
1311877979.889666 0.598697 9.471380 -1.927803
1311877979.890790 0.598697 9.471380 -1.927803
1311877979.894457 0.407114 9.184006 -1.592533
1311877979.895408 0.407114 9.184006 -1.592533
1311877979.896659 0.407114 9.184006 -1.592533
1311877979.897660 0.407114 9.184006 -1.592533
1311877979.900805 0.502905 9.088214 -1.736220
1311877979.901805 0.502905 9.088214 -1.736220
1311877979.905447 0.802253 9.471380 -1.975699
1311877979.906427 0.802253 9.471380 -1.975699
1311877979.909683 0.431062 9.279797 -1.736220
1311877979.910694 0.431062 9.279797 -1.736220
1311877979.911937 0.431062 9.279797 -1.736220
1311877979.912922 0.431062 9.279797 -1.736220
1311877979.916568 0.598697 9.375588 -1.137524
1311877979.917696 0.598697 9.375588 -1.137524
1311877979.920698 0.598697 9.375588 -1.257263
1311877979.921802 0.598697 9.375588 -1.257263
1311877979.925415 0.407114 9.088214 -1.640429
1311877979.926405 0.407114 9.088214 -1.640429
1311877979.929661 0.754358 9.471380 -1.353054
1311877979.930802 0.754358 9.471380 -1.353054
1311877979.934317 0.407114 9.279797 -1.209367
1311877979.935441 0.407114 9.279797 -1.209367
1311877979.936573 0.407114 9.279797 -1.209367
1311877979.937672 0.407114 9.279797 -1.209367
1311877979.940895 0.395140 9.136110 -1.544637
1311877979.941794 0.395140 9.136110 -1.544637
1311877979.945462 0.838175 9.471380 -1.640429
1311877979.946478 0.838175 9.471380 -1.640429
1311877979.949669 0.407114 9.447432 -1.544637
1311877979.950812 0.407114 9.447432 -1.544637
1311877979.954419 0.071844 9.375588 -1.209367
1311877979.955444 0.071844 9.375588 -1.209367
1311877979.956422 0.071844 9.375588 -1.209367
1311877979.959810 0.754358 9.184006 -1.736220
1311877979.960931 0.754358 9.184006 -1.736220
1311877979.964430 0.598697 9.279797 -1.927803
1311877979.965406 0.598697 9.279797 -1.927803
1311877979.966663 0.598697 9.279797 -1.927803
1311877979.967788 0.598697 9.279797 -1.927803
1311877979.970952 0.431062 9.459406 -1.257263
1311877979.971927 0.431062 9.459406 -1.257263
1311877979.975568 0.598697 9.112162 -1.520689
1311877979.976563 0.598697 9.112162 -1.520689
1311877979.979686 0.598697 8.992423 -1.879907
1311877979.980795 0.598697 8.992423 -1.879907
1311877979.984435 0.838175 9.471380 -1.640429
1311877979.985428 0.838175 9.471380 -1.640429
1311877979.986674 0.838175 9.471380 -1.640429
1311877979.987791 0.838175 9.471380 -1.640429
1311877979.990941 0.407114 9.279797 -1.161471
1311877979.991930 0.407114 9.279797 -1.161471
1311877979.995424 0.419088 9.136110 -1.173445
1311877979.996536 0.419088 9.136110 -1.173445
1311877979.999800 0.802253 9.136110 -1.640429
1311877980.000786 0.802253 9.136110 -1.640429
1311877980.004309 0.790279 9.184006 -1.832012
1311877980.005431 0.790279 9.184006 -1.832012
1311877980.006671 0.790279 9.184006 -1.832012
1311877980.007671 0.790279 9.184006 -1.832012
1311877980.011315 0.407114 9.471380 -0.874097
1311877980.012336 0.407114 9.471380 -0.874097
1311877980.013316 0.407114 9.471380 -0.874097
1311877980.016836 0.407114 9.088214 -1.927803
1311877980.017816 0.407114 9.088214 -1.927803
1311877980.021559 0.886071 9.279797 -2.119386
1311877980.022550 0.886071 9.279797 -2.119386
1311877980.025920 0.838175 9.662963 -1.353054
1311877980.027368 0.838175 9.662963 -1.353054
1311877980.030548 0.023948 9.184006 -1.161471
1311877980.031534 0.023948 9.184006 -1.161471
1311877980.034798 0.455009 9.279797 -1.544637
1311877980.035784 0.455009 9.279797 -1.544637
1311877980.039423 1.173445 9.184006 -2.119386
1311877980.040448 1.173445 9.184006 -2.119386
1311877980.041674 1.173445 9.184006 -2.119386
1311877980.042826 1.173445 9.184006 -2.119386
1311877980.045836 0.323296 9.375588 -1.520689
1311877980.046922 0.323296 9.375588 -1.520689
1311877980.050608 0.371192 9.279797 -0.969888
1311877980.051718 0.371192 9.279797 -0.969888
1311877980.054857 0.802253 9.279797 -1.640429
1311877980.055800 0.802253 9.279797 -1.640429
1311877980.060249 0.802253 9.088214 -2.119386
1311877980.061160 0.802253 9.088214 -2.119386
1311877980.064543 0.598697 9.662963 -1.448846
1311877980.065532 0.598697 9.662963 -1.448846
1311877980.066780 0.598697 9.662963 -1.448846
1311877980.067780 0.598697 9.662963 -1.448846
1311877980.071579 0.023948 9.279797 -0.874097
1311877980.072549 0.023948 9.279797 -0.874097
1311877980.076906 0.407114 9.459406 -1.640429
1311877980.079500 0.502905 9.471380 -2.119386
1311877980.080688 0.502905 9.471380 -2.119386
1311877980.081668 0.502905 9.471380 -2.119386
1311877980.082814 0.502905 9.471380 -2.119386
1311877980.086430 0.023948 9.471380 -0.874097
1311877980.087454 0.023948 9.471380 -0.874097
1311877980.090561 0.071844 9.662963 -0.586723
1311877980.091675 0.071844 9.662963 -0.586723
1311877980.094925 0.071844 9.076240 -1.592533
1311877980.096283 0.071844 9.076240 -1.592533
1311877980.099554 0.407114 9.136110 -1.975699
1311877980.100572 0.407114 9.136110 -1.975699
1311877980.101799 0.407114 9.136110 -1.975699
1311877980.102944 0.407114 9.136110 -1.975699
1311877980.106683 0.023948 9.184006 -0.874097
1311877980.107720 0.023948 9.184006 -0.874097
1311877980.110790 -0.335270 9.100188 -0.969888
1311877980.111800 -0.335270 9.100188 -0.969888
1311877980.115407 0.838175 9.136110 -1.544637
1311877980.116400 0.838175 9.136110 -1.544637
1311877980.119807 0.802253 9.088214 -1.927803
1311877980.120800 0.802253 9.088214 -1.927803
1311877980.124436 -0.167635 9.184006 -1.496741
1311877980.125419 -0.167635 9.184006 -1.496741
1311877980.126661 -0.167635 9.184006 -1.496741
1311877980.127688 -0.167635 9.184006 -1.496741
1311877980.130920 0.598697 9.375588 -0.802253
1311877980.131907 0.598697 9.375588 -0.802253
1311877980.135541 0.047896 9.088214 -1.496741
1311877980.136674 0.047896 9.088214 -1.496741
1311877980.139707 0.023948 9.112162 -1.544637
1311877980.140860 0.023948 9.112162 -1.544637
1311877980.144431 0.598697 9.662963 -0.826201
1311877980.145535 0.598697 9.662963 -0.826201
1311877980.146663 0.598697 9.662963 -0.826201
1311877980.147655 0.598697 9.662963 -0.826201
1311877980.150828 -0.538827 9.423484 -1.209367
1311877980.151960 -0.538827 9.423484 -1.209367
1311877980.155540 0.407114 9.471380 -1.640429
1311877980.156650 0.407114 9.471380 -1.640429
1311877980.159676 0.706462 9.662963 -1.832012
1311877980.160665 0.706462 9.662963 -1.832012
1311877980.164437 -0.347244 9.471380 -1.257263
1311877980.165425 -0.347244 9.471380 -1.257263
1311877980.166685 -0.347244 9.471380 -1.257263
1311877980.167661 -0.347244 9.471380 -1.257263
1311877980.170952 0.047896 9.423484 -1.448846
1311877980.174436 0.419088 9.088214 -1.975699
1311877980.175432 0.419088 9.088214 -1.975699
1311877980.176589 0.419088 9.088214 -1.975699
1311877980.177680 0.419088 9.088214 -1.975699
1311877980.180845 0.227505 9.471380 -1.544637
1311877980.181802 0.227505 9.471380 -1.544637
1311877980.185424 -0.167635 9.279797 -0.969888
1311877980.186545 -0.167635 9.279797 -0.969888
1311877980.189665 0.023948 9.088214 -1.209367
1311877980.190776 0.023948 9.088214 -1.209367
1311877980.194432 0.802253 9.279797 -1.927803
1311877980.195426 0.802253 9.279797 -1.927803
1311877980.196660 0.802253 9.279797 -1.927803
1311877980.197779 0.802253 9.279797 -1.927803
1311877980.200813 0.227505 9.662963 -1.161471
1311877980.201937 0.227505 9.662963 -1.161471
1311877980.205427 -0.167635 9.279797 -0.826201
1311877980.206668 -0.167635 9.279797 -0.826201
1311877980.209689 0.407114 9.375588 -1.161471
1311877980.210803 0.407114 9.375588 -1.161471
1311877980.214455 0.802253 9.375588 -1.736220
1311877980.215423 0.802253 9.375588 -1.736220
1311877980.216669 0.802253 9.375588 -1.736220
1311877980.217690 0.802253 9.375588 -1.736220
1311877980.220992 0.227505 9.279797 -1.161471
1311877980.224320 0.395140 9.279797 -0.682514
1311877980.225312 0.395140 9.279797 -0.682514
1311877980.226683 0.395140 9.279797 -0.682514
1311877980.227665 0.395140 9.279797 -0.682514
1311877980.231294 0.598697 9.088214 -1.592533
1311877980.232406 0.598697 9.088214 -1.592533
1311877980.235591 0.802253 9.375588 -1.879907
1311877980.236538 0.802253 9.375588 -1.879907
1311877980.239805 0.802253 9.375588 -1.353054
1311877980.240809 0.802253 9.375588 -1.353054
1311877980.244312 0.023948 9.088214 -1.161471
1311877980.245438 0.023948 9.088214 -1.161471
1311877980.246668 0.023948 9.088214 -1.161471
1311877980.247670 0.023948 9.088214 -1.161471
1311877980.250930 0.814227 9.471380 -1.903855
1311877980.251954 0.814227 9.471380 -1.903855
1311877980.255543 0.993836 9.471380 -2.119386
1311877980.256673 0.993836 9.471380 -2.119386
1311877980.259923 0.323296 9.662963 -1.353054
1311877980.260790 0.323296 9.662963 -1.353054
1311877980.264418 0.419088 9.495328 -0.969888
1311877980.265402 0.419088 9.495328 -0.969888
1311877980.266782 0.419088 9.495328 -0.969888
1311877980.267788 0.419088 9.495328 -0.969888
1311877980.271473 0.886071 9.088214 -2.310969
1311877980.274598 1.173445 9.279797 -2.263073
1311877980.275535 1.173445 9.279797 -2.263073
1311877980.277104 1.173445 9.279797 -2.263073
1311877980.279835 0.598697 9.279797 -1.161471
1311877980.280939 0.598697 9.279797 -1.161471
1311877980.284576 0.023948 9.088214 -1.209367
1311877980.285450 0.023948 9.088214 -1.209367
1311877980.286844 0.023948 9.088214 -1.209367
1311877980.287803 0.023948 9.088214 -1.209367
1311877980.291572 1.365028 9.279797 -2.298995
1311877980.292550 1.365028 9.279797 -2.298995
1311877980.295814 0.802253 9.471380 -1.927803
1311877980.296963 0.802253 9.471380 -1.927803
1311877980.300692 -0.167635 9.471380 -1.065680
1311877980.301538 -0.167635 9.471380 -1.065680
1311877980.304691 0.323296 9.662963 -1.185419
1311877980.305835 0.323296 9.662963 -1.185419
1311877980.309425 0.802253 9.375588 -2.310969
1311877980.310461 0.802253 9.375588 -2.310969
1311877980.311663 0.802253 9.375588 -2.310969
1311877980.312657 0.802253 9.375588 -2.310969
1311877980.316166 0.778306 9.842572 -1.496741
1311877980.317323 0.778306 9.842572 -1.496741
1311877980.320729 0.407114 9.471380 -0.395140
1311877980.321800 0.407114 9.471380 -0.395140
1311877980.325411 0.407114 9.088214 -1.173445
1311877980.326527 0.407114 9.088214 -1.173445
1311877980.329944 1.269237 8.896631 -1.951751
1311877980.330912 1.269237 8.896631 -1.951751
1311877980.334561 1.185419 9.088214 -1.448846
1311877980.335557 1.185419 9.088214 -1.448846
1311877980.336815 1.185419 9.088214 -1.448846
1311877980.337827 1.185419 9.088214 -1.448846
1311877980.341550 0.023948 8.752944 -0.586723
1311877980.342559 0.023948 8.752944 -0.586723
1311877980.346081 0.993836 9.279797 -1.257263
1311877980.349433 1.556611 9.184006 -2.023594
1311877980.350592 1.556611 9.184006 -2.023594
1311877980.351805 1.556611 9.184006 -2.023594
1311877980.352819 1.556611 9.184006 -2.023594
1311877980.356367 0.023948 9.662963 -1.161471
1311877980.357271 0.023948 9.662963 -1.161471
1311877980.358397 0.023948 9.662963 -1.161471
1311877980.361700 -0.167635 9.184006 -0.778306
1311877980.362789 -0.167635 9.184006 -0.778306
1311877980.366411 0.886071 9.471380 -1.736220
1311877980.367522 0.886071 9.471380 -1.736220
1311877980.370919 0.407114 9.567171 -2.287021
1311877980.371790 0.407114 9.567171 -2.287021
1311877980.375550 -0.443035 9.471380 -1.353054
1311877980.376535 -0.443035 9.471380 -1.353054
1311877980.379793 0.035922 9.495328 -0.682514
1311877980.380786 0.035922 9.495328 -0.682514
1311877980.384599 0.407114 9.662963 -1.496741
1311877980.385552 0.407114 9.662963 -1.496741
1311877980.386919 0.407114 9.662963 -1.496741
1311877980.387796 0.407114 9.662963 -1.496741
1311877980.391417 0.071844 9.375588 -2.119386
1311877980.392526 0.071844 9.375588 -2.119386
1311877980.395809 0.395140 9.758754 -1.257263
1311877980.396949 0.395140 9.758754 -1.257263
1311877980.400544 0.407114 9.471380 -1.065680
1311877980.401416 0.407114 9.471380 -1.065680
1311877980.404921 0.395140 8.896631 -1.927803
1311877980.405809 0.395140 8.896631 -1.927803
1311877980.409446 0.838175 8.992423 -2.310969
1311877980.410559 0.838175 8.992423 -2.310969
1311877980.411659 0.838175 8.992423 -2.310969
1311877980.412788 0.838175 8.992423 -2.310969
1311877980.416279 -0.167635 9.088214 -1.257263
1311877980.417457 -0.167635 9.088214 -1.257263
1311877980.420569 -0.059870 8.896631 -1.161471
1311877980.421537 -0.059870 8.896631 -1.161471
1311877980.424807 0.790279 9.279797 -1.832012
1311877980.425783 0.790279 9.279797 -1.832012
1311877980.429448 0.323296 9.279797 -2.119386
1311877980.430441 0.323296 9.279797 -2.119386
1311877980.431771 0.323296 9.279797 -2.119386
1311877980.432643 0.323296 9.279797 -2.119386
1311877980.436440 -0.347244 9.854546 -0.778306
1311877980.437447 -0.347244 9.854546 -0.778306
1311877980.440537 -0.059870 9.842572 -0.969888
1311877980.441663 -0.059870 9.842572 -0.969888
1311877980.444793 0.227505 9.279797 -1.927803
1311877980.445785 0.227505 9.279797 -1.927803
1311877980.449435 0.371192 9.662963 -1.640429
1311877980.450546 0.371192 9.662963 -1.640429
1311877980.451702 0.371192 9.662963 -1.640429
1311877980.452949 0.371192 9.662963 -1.640429
1311877980.456184 -0.347244 9.471380 -0.778306
1311877980.457273 -0.347244 9.471380 -0.778306
1311877980.460536 0.227505 9.184006 -1.353054
1311877980.461642 0.227505 9.184006 -1.353054
1311877980.464944 1.365028 9.064266 -2.287021
1311877980.466279 1.365028 9.064266 -2.287021
1311877980.467414 1.365028 9.064266 -2.287021
1311877980.470700 0.227505 9.088214 -1.832012
1311877980.471658 0.227505 9.088214 -1.832012
1311877980.474829 -0.263426 9.088214 -1.185419
1311877980.475948 -0.263426 9.088214 -1.185419
1311877980.479419 0.598697 8.992423 -1.640429
1311877980.480417 0.598697 8.992423 -1.640429
1311877980.481670 0.598697 8.992423 -1.640429
1311877980.482799 0.598697 8.992423 -1.640429
1311877980.486534 0.598697 9.088214 -2.646239
1311877980.487542 0.598697 9.088214 -2.646239
1311877980.491300 0.227505 9.854546 -1.879907
1311877980.492287 0.227505 9.854546 -1.879907
1311877980.495681 -0.167635 9.662963 -1.161471
1311877980.496668 -0.167635 9.662963 -1.161471
1311877980.499801 0.323296 9.471380 -1.927803
1311877980.500899 0.323296 9.471380 -1.927803
1311877980.504549 1.365028 9.806650 -2.502552
1311877980.505424 1.365028 9.806650 -2.502552
1311877980.506794 1.365028 9.806650 -2.502552
1311877980.507794 1.365028 9.806650 -2.502552
1311877980.511447 -0.167635 9.279797 -1.448846
1311877980.512406 -0.167635 9.279797 -1.448846
1311877980.515796 -0.059870 9.184006 -0.778306
1311877980.516768 -0.059870 9.184006 -0.778306
1311877980.520699 0.886071 8.896631 -1.736220
1311877980.521711 0.886071 8.896631 -1.736220
1311877980.524818 0.886071 9.088214 -2.310969
1311877980.525640 0.886071 9.088214 -2.310969
1311877980.529411 0.395140 9.184006 -1.496741
1311877980.530558 0.395140 9.184006 -1.496741
1311877980.531653 0.395140 9.184006 -1.496741
1311877980.532770 0.395140 9.184006 -1.496741
1311877980.535933 -0.167635 9.279797 -0.778306
1311877980.536930 -0.167635 9.279797 -0.778306
1311877980.540705 0.598697 9.471380 -1.832012
1311877980.541685 0.598697 9.471380 -1.832012
1311877980.545462 1.185419 9.854546 -2.694135
1311877980.546412 1.185419 9.854546 -2.694135
1311877980.549861 -0.167635 9.854546 -1.736220
1311877980.551018 -0.167635 9.854546 -1.736220
1311877980.554562 -0.395140 9.279797 -0.730410
1311877980.555542 -0.395140 9.279797 -0.730410
1311877980.556795 -0.395140 9.279797 -0.730410
1311877980.557794 -0.395140 9.279797 -0.730410
1311877980.561686 1.185419 9.279797 -2.310969
1311877980.562656 1.185419 9.279797 -2.310969
1311877980.565783 0.802253 9.471380 -2.502552
1311877980.566771 0.802253 9.471380 -2.502552
1311877980.570549 0.227505 9.136110 -1.161471
1311877980.571546 0.227505 9.136110 -1.161471
1311877980.574822 0.023948 8.896631 -0.395140
1311877980.575946 0.023948 8.896631 -0.395140
1311877980.579667 0.502905 9.279797 -1.544637
1311877980.580662 0.502905 9.279797 -1.544637
1311877980.581917 0.502905 9.279797 -1.544637
1311877980.583341 0.502905 9.279797 -1.544637
1311877980.586693 0.838175 9.567171 -2.742030
1311877980.587792 0.838175 9.567171 -2.742030
1311877980.591291 -0.359218 9.088214 -1.209367
1311877980.592411 -0.359218 9.088214 -1.209367
1311877980.595662 -0.167635 9.471380 -0.299348
1311877980.596645 -0.167635 9.471380 -0.299348
1311877980.600530 0.407114 9.854546 -1.927803
1311877980.601529 0.407114 9.854546 -1.927803
1311877980.604792 0.802253 8.896631 -2.981509
1311877980.605809 0.802253 8.896631 -2.981509
1311877980.609854 0.407114 9.758754 -1.544637
1311877980.610673 0.407114 9.758754 -1.544637
1311877980.613964 -0.263426 9.279797 -0.011974
1311877980.615264 -0.263426 9.279797 -0.011974
1311877980.616552 -0.263426 9.279797 -0.011974
1311877980.617569 -0.263426 9.279797 -0.011974
1311877980.621450 0.407114 9.423484 -1.544637
1311877980.622694 0.407114 9.423484 -1.544637
1311877980.625807 1.903855 9.088214 -2.694135
1311877980.626796 1.903855 9.088214 -2.694135
1311877980.630687 0.023948 9.184006 -1.353054
1311877980.631522 0.023948 9.184006 -1.353054
1311877980.634655 -0.778306 9.279797 -0.011974
1311877980.635776 -0.778306 9.279797 -0.011974
1311877980.636899 -0.778306 9.279797 -0.011974
1311877980.637892 -0.778306 9.279797 -0.011974
1311877980.641815 1.365028 9.459406 -1.496741
1311877980.642986 1.365028 9.459406 -1.496741
1311877980.646548 1.556611 8.992423 -2.598343
1311877980.647538 1.556611 8.992423 -2.598343
1311877980.651481 -0.443035 9.854546 -1.161471
1311877980.652423 -0.443035 9.854546 -1.161471
1311877980.655577 -0.826201 9.519276 0.011974
1311877980.656689 -0.826201 9.519276 0.011974
1311877980.659779 0.802253 9.519276 -0.826201
1311877980.660775 0.802253 9.519276 -0.826201
1311877980.664660 1.951751 9.423484 -2.310969
1311877980.665644 1.951751 9.423484 -2.310969
1311877980.667354 1.951751 9.423484 -2.310969
1311877980.670539 -0.718436 9.136110 -1.640429
1311877980.671556 -0.718436 9.136110 -1.640429
1311877980.674698 -0.730410 9.471380 -0.011974
1311877980.675670 -0.730410 9.471380 -0.011974
1311877980.676951 -0.730410 9.471380 -0.011974
1311877980.677917 -0.730410 9.471380 -0.011974
1311877980.681674 1.173445 9.375588 -1.532663
1311877980.684437 1.173445 9.375588 -1.532663
1311877980.686826 1.185419 8.609257 -2.885718
1311877980.689676 0.023948 9.112162 -1.927803
1311877980.690693 0.023948 9.112162 -1.927803
1311877980.694559 -0.538827 9.471380 -0.203557
1311877980.695521 -0.538827 9.471380 -0.203557
1311877980.696772 -0.538827 9.471380 -0.203557
1311877980.697917 -0.538827 9.471380 -0.203557
1311877980.701679 0.598697 9.483354 -1.161471
1311877980.702743 0.598697 9.483354 -1.161471
1311877980.706429 2.131360 9.088214 -2.598343
1311877980.707422 2.131360 9.088214 -2.598343
1311877980.710813 -0.347244 9.471380 -1.544637
1311877980.711784 -0.347244 9.471380 -1.544637
1311877980.715401 -0.730410 9.806650 -0.011974
1311877980.716408 -0.730410 9.806650 -0.011974
1311877980.719782 0.814227 9.136110 -0.778306
1311877980.720784 0.814227 9.136110 -0.778306
1311877980.724768 1.760168 8.345830 -2.694135
1311877980.725831 1.760168 8.345830 -2.694135
1311877980.729414 0.227505 9.088214 -2.310969
1311877980.730417 0.227505 9.088214 -2.310969
1311877980.731647 0.227505 9.088214 -2.310969
1311877980.732644 0.227505 9.088214 -2.310969
1311877980.736414 -0.646592 9.567171 -0.203557
1311877980.737475 -0.646592 9.567171 -0.203557
1311877980.741300 0.706462 9.088214 -1.544637
1311877980.742410 0.706462 9.088214 -1.544637
1311877980.745800 2.287021 9.279797 -3.173092
1311877980.746779 2.287021 9.279797 -3.173092
1311877980.751894 -0.311322 9.758754 -2.119386
1311877980.754738 -1.305159 9.662963 -0.395140
1311877980.755781 -1.305159 9.662963 -0.395140
1311877980.756784 -1.305159 9.662963 -0.395140
1311877980.760311 1.137524 9.519276 -0.586723
1311877980.761457 1.137524 9.519276 -0.586723
1311877980.765282 1.903855 8.705048 -2.694135
1311877980.766271 1.903855 8.705048 -2.694135
1311877980.769667 0.023948 9.279797 -2.215177
1311877980.770653 0.023948 9.279797 -2.215177
1311877980.774265 -1.305159 9.662963 -0.035922
1311877980.775318 -1.305159 9.662963 -0.035922
1311877980.776400 -1.305159 9.662963 -0.035922
1311877980.777566 -1.305159 9.662963 -0.035922
1311877980.780935 0.598697 9.375588 -0.969888
1311877980.781920 0.598697 9.375588 -0.969888
1311877980.785961 2.035568 9.088214 -2.981509
1311877980.789400 0.323296 9.423484 -2.694135
1311877980.790387 0.323296 9.423484 -2.694135
1311877980.791670 0.323296 9.423484 -2.694135
1311877980.792668 0.323296 9.423484 -2.694135
1311877980.796526 -1.412924 9.854546 -0.395140
1311877980.797522 -1.412924 9.854546 -0.395140
1311877980.800945 1.185419 9.136110 -1.161471
1311877980.801939 1.185419 9.136110 -1.161471
1311877980.805922 1.951751 8.705048 -3.173092
1311877980.806893 1.951751 8.705048 -3.173092
1311877980.810670 -0.538827 9.471380 -1.951751
1311877980.811676 -0.538827 9.471380 -1.951751
1311877980.815170 -1.412924 9.519276 -0.059870
1311877980.816422 -1.412924 9.519276 -0.059870
1311877980.817424 -1.412924 9.519276 -0.059870
1311877980.820817 0.993836 9.112162 -0.969888
1311877980.821784 0.993836 9.112162 -0.969888
1311877980.825778 2.131360 8.896631 -2.694135
1311877980.826766 2.131360 8.896631 -2.694135
1311877980.830418 -0.646592 9.854546 -1.927803
1311877980.831515 -0.646592 9.854546 -1.927803
1311877980.835280 -1.796090 9.758754 -0.107765
1311877980.836270 -1.796090 9.758754 -0.107765
1311877980.839539 1.173445 9.279797 -0.395140
1311877980.840676 1.173445 9.279797 -0.395140
1311877980.841796 1.173445 9.279797 -0.395140
1311877980.842918 1.173445 9.279797 -0.395140
1311877980.847167 1.760168 9.076240 -2.981509
1311877980.850765 -0.311322 10.333503 -1.927803
1311877980.851823 -0.311322 10.333503 -1.927803
1311877980.852915 -0.311322 10.333503 -1.927803
1311877980.856523 -0.646592 8.992423 -0.443035
1311877980.857666 -0.646592 8.992423 -0.443035
1311877980.861321 1.903855 8.705048 -1.448846
1311877980.862315 1.903855 8.705048 -1.448846
1311877980.863418 1.903855 8.705048 -1.448846
1311877980.869442 0.227505 9.567171 -2.310969
1311877980.870402 0.227505 9.567171 -2.310969
1311877980.871651 0.227505 9.567171 -2.310969
1311877980.872689 0.227505 9.567171 -2.310969
1311877980.876432 -0.359218 9.040318 -0.754358
1311877980.877263 -0.359218 9.040318 -0.754358
1311877980.880794 2.334917 9.184006 -1.640429
1311877980.881768 2.334917 9.184006 -1.640429
1311877980.885678 1.365028 9.279797 -3.029405
1311877980.886689 1.365028 9.279797 -3.029405
1311877980.889923 -0.538827 10.189816 -1.915829
1311877980.890910 -0.538827 10.189816 -1.915829
1311877980.894539 -0.730410 9.279797 -0.874097
1311877980.895714 -0.730410 9.279797 -0.874097
1311877980.896910 -0.730410 9.279797 -0.874097
1311877980.897793 -0.730410 9.279797 -0.874097
1311877980.901647 1.568585 9.088214 -2.310969
1311877980.902684 1.568585 9.088214 -2.310969
1311877980.905782 0.802253 9.471380 -2.310969
1311877980.906898 0.802253 9.471380 -2.310969
1311877980.910406 -1.161471 9.279797 -1.496741
1311877980.911542 -1.161471 9.279797 -1.496741
1311877980.914781 -0.311322 9.088214 -0.586723
1311877980.915769 -0.311322 9.088214 -0.586723
1311877980.919529 1.903855 9.471380 -1.257263
1311877980.920550 1.903855 9.471380 -1.257263
1311877980.921761 1.903855 9.471380 -1.257263
1311877980.922886 1.903855 9.471380 -1.257263
1311877980.926560 0.047896 9.279797 -1.927803
1311877980.927531 0.047896 9.279797 -1.927803
1311877980.931308 -0.730410 9.471380 -0.682514
1311877980.932283 -0.730410 9.471380 -0.682514
1311877980.935534 0.598697 8.800840 -0.586723
1311877980.936643 0.598697 8.800840 -0.586723
1311877980.939913 1.185419 9.136110 -1.544637
1311877980.940898 1.185419 9.136110 -1.544637
1311877980.944429 0.455009 9.423484 -1.903855
1311877980.945430 0.455009 9.423484 -1.903855
1311877980.946810 0.455009 9.423484 -1.903855
1311877980.947778 0.455009 9.423484 -1.903855
1311877980.951432 -0.538827 9.040318 -0.778306
1311877980.952757 -0.538827 9.040318 -0.778306
1311877980.955803 0.993836 9.375588 -0.682514
1311877980.956784 0.993836 9.375588 -0.682514
1311877980.960532 0.886071 9.806650 -1.736220
1311877980.961513 0.886071 9.806650 -1.736220
1311877980.964777 -0.167635 9.279797 -2.023594
1311877980.965638 -0.167635 9.279797 -2.023594
1311877980.969420 -0.263426 9.375588 -0.969888
1311877980.970535 -0.263426 9.375588 -0.969888
1311877980.971801 -0.263426 9.375588 -0.969888
1311877980.972806 -0.263426 9.375588 -0.969888
1311877980.976405 0.502905 9.375588 -1.520689
1311877980.977457 0.502905 9.375588 -1.520689
1311877980.980836 0.323296 9.184006 -2.310969
1311877980.981789 0.323296 9.184006 -2.310969
1311877980.985435 0.071844 9.459406 -1.951751
1311877980.986519 0.071844 9.459406 -1.951751
1311877980.989799 0.011974 9.184006 -1.161471
1311877980.990911 0.011974 9.184006 -1.161471
1311877980.994419 0.119739 9.423484 -1.161471
1311877980.995408 0.119739 9.423484 -1.161471
1311877980.996663 0.119739 9.423484 -1.161471
1311877980.997638 0.119739 9.423484 -1.161471
1311877981.001279 0.754358 9.662963 -2.119386
1311877981.004402 -0.059870 9.279797 -2.119386
1311877981.005400 -0.059870 9.279797 -2.119386
1311877981.006667 -0.059870 9.279797 -2.119386
1311877981.007810 -0.059870 9.279797 -2.119386
1311877981.011793 0.227505 9.279797 -0.778306
1311877981.014434 0.407114 9.375588 -0.778306
1311877981.015406 0.407114 9.375588 -0.778306
1311877981.016673 0.407114 9.375588 -0.778306
1311877981.017854 0.407114 9.375588 -0.778306
1311877981.021454 0.754358 9.459406 -1.736220
1311877981.022540 0.754358 9.459406 -1.736220
1311877981.025706 0.227505 9.279797 -1.353054
1311877981.026784 0.227505 9.279797 -1.353054
1311877981.030414 0.023948 8.896631 -0.586723
1311877981.031510 0.023948 8.896631 -0.586723
1311877981.034648 0.598697 9.279797 -0.778306
1311877981.035646 0.598697 9.279797 -0.778306
1311877981.039534 0.802253 9.375588 -1.592533
1311877981.040425 0.802253 9.375588 -1.592533
1311877981.041676 0.802253 9.375588 -1.592533
1311877981.042674 0.802253 9.375588 -1.592533
1311877981.045781 -0.059870 9.088214 -1.568585
1311877981.046797 -0.059870 9.088214 -1.568585
1311877981.050406 0.323296 9.495328 -0.969888
1311877981.051407 0.323296 9.495328 -0.969888
1311877981.054819 0.407114 9.662963 -1.592533
1311877981.055921 0.407114 9.662963 -1.592533
1311877981.059390 0.407114 9.662963 -2.119386
1311877981.060400 0.407114 9.662963 -2.119386
1311877981.061677 0.407114 9.662963 -2.119386
1311877981.062775 0.407114 9.662963 -2.119386
1311877981.065780 0.407114 9.279797 -1.832012
1311877981.066915 0.407114 9.279797 -1.832012
1311877981.070410 0.323296 9.088214 -1.353054
1311877981.071404 0.323296 9.088214 -1.353054
1311877981.074660 0.407114 9.184006 -1.544637
1311877981.075646 0.407114 9.184006 -1.544637
1311877981.080813 0.886071 9.471380 -2.119386
1311877981.081669 0.886071 9.471380 -2.119386
1311877981.082772 0.886071 9.471380 -2.119386
1311877981.086415 0.119739 9.088214 -1.736220
1311877981.087549 0.119739 9.088214 -1.736220
1311877981.090650 0.407114 9.279797 -1.161471
1311877981.091780 0.407114 9.279797 -1.161471
1311877981.095300 0.706462 9.375588 -1.736220
1311877981.096406 0.706462 9.375588 -1.736220
1311877981.099797 0.778306 9.471380 -2.215177
1311877981.100793 0.778306 9.471380 -2.215177
1311877981.104398 0.455009 9.471380 -1.568585
1311877981.105407 0.455009 9.471380 -1.568585
1311877981.106667 0.455009 9.471380 -1.568585
1311877981.107657 0.455009 9.471380 -1.568585
1311877981.110850 0.119739 9.184006 -1.113576
1311877981.111940 0.119739 9.184006 -1.113576
1311877981.115408 0.802253 9.471380 -1.161471
1311877981.116411 0.802253 9.471380 -1.161471
1311877981.119785 0.598697 9.375588 -1.736220
1311877981.120903 0.598697 9.375588 -1.736220
1311877981.124423 -0.167635 9.088214 -1.640429
1311877981.125402 -0.167635 9.088214 -1.640429
1311877981.126667 -0.167635 9.088214 -1.640429
1311877981.127633 -0.167635 9.088214 -1.640429
1311877981.131170 0.227505 9.375588 -0.826201
1311877981.132267 0.227505 9.375588 -0.826201
1311877981.135649 0.598697 9.423484 -1.353054
1311877981.136542 0.598697 9.423484 -1.353054
1311877981.139794 0.323296 9.471380 -1.927803
1311877981.140779 0.323296 9.471380 -1.927803
1311877981.144410 0.227505 9.662963 -1.736220
1311877981.145401 0.227505 9.662963 -1.736220
1311877981.146651 0.227505 9.662963 -1.736220
1311877981.148025 0.227505 9.662963 -1.736220
1311877981.150970 0.227505 9.279797 -1.257263
1311877981.154428 0.502905 9.447432 -1.640429
1311877981.155390 0.502905 9.447432 -1.640429
1311877981.156663 0.502905 9.447432 -1.640429
1311877981.157759 0.502905 9.447432 -1.640429
1311877981.160769 0.502905 9.184006 -1.927803
1311877981.161789 0.502905 9.184006 -1.927803
1311877981.165399 0.023948 8.896631 -1.592533
1311877981.166516 0.023948 8.896631 -1.592533
1311877981.169684 0.455009 9.088214 -1.209367
1311877981.170827 0.455009 9.088214 -1.209367
1311877981.174514 0.802253 9.088214 -1.544637
1311877981.175419 0.802253 9.088214 -1.544637
1311877981.176647 0.802253 9.088214 -1.544637
1311877981.177655 0.802253 9.088214 -1.544637
1311877981.180650 0.227505 9.459406 -1.736220
1311877981.181796 0.227505 9.459406 -1.736220
1311877981.185396 0.407114 9.459406 -1.544637
1311877981.186377 0.407114 9.459406 -1.544637
1311877981.189663 0.407114 9.279797 -1.161471
1311877981.190650 0.407114 9.279797 -1.161471
1311877981.191958 0.407114 9.279797 -1.161471
1311877981.193282 0.407114 9.279797 -1.161471
1311877981.196519 0.455009 9.567171 -1.448846
1311877981.197516 0.455009 9.567171 -1.448846
1311877981.200641 0.407114 9.662963 -1.496741
1311877981.201756 0.407114 9.662963 -1.496741
1311877981.205280 0.023948 9.184006 -1.353054
1311877981.206408 0.023948 9.184006 -1.353054
1311877981.209670 0.598697 9.375588 -0.969888
1311877981.210683 0.598697 9.375588 -0.969888
1311877981.211906 0.598697 9.375588 -0.969888
1311877981.212937 0.598697 9.375588 -0.969888
1311877981.216522 0.407114 9.088214 -1.544637
1311877981.217655 0.407114 9.088214 -1.544637
1311877981.220844 0.323296 9.279797 -1.832012
1311877981.222279 0.323296 9.279797 -1.832012
1311877981.225395 0.407114 9.088214 -1.544637
1311877981.226381 0.407114 9.088214 -1.544637
1311877981.229651 0.407114 9.040318 -1.544637
1311877981.230633 0.407114 9.040318 -1.544637
1311877981.232162 0.407114 9.040318 -1.544637
1311877981.233286 0.407114 9.040318 -1.544637
1311877981.236523 0.227505 9.471380 -1.544637
1311877981.237660 0.227505 9.471380 -1.544637
1311877981.240870 0.023948 9.459406 -1.915829
1311877981.244483 -0.167635 9.471380 -1.903855
1311877981.245389 -0.167635 9.471380 -1.903855
1311877981.246403 -0.167635 9.471380 -1.903855
1311877981.249656 0.407114 9.662963 -1.640429
1311877981.250642 0.407114 9.662963 -1.640429
1311877981.254401 0.119739 9.662963 -1.544637
1311877981.255386 0.119739 9.662963 -1.544637
1311877981.256531 0.119739 9.662963 -1.544637
1311877981.257629 0.119739 9.662963 -1.544637
1311877981.260640 0.035922 9.567171 -1.640429
1311877981.261780 0.035922 9.567171 -1.640429
1311877981.265420 0.323296 9.423484 -1.353054
1311877981.266413 0.323296 9.423484 -1.353054
1311877981.269537 0.323296 9.088214 -1.257263
1311877981.270646 0.323296 9.088214 -1.257263
1311877981.271894 0.323296 9.088214 -1.257263
1311877981.273294 0.323296 9.088214 -1.257263
1311877981.276284 0.395140 9.375588 -1.448846
1311877981.277294 0.395140 9.375588 -1.448846
1311877981.280545 0.227505 9.375588 -1.544637
1311877981.281558 0.227505 9.375588 -1.544637
1311877981.284822 0.119739 9.375588 -1.353054
1311877981.285907 0.119739 9.375588 -1.353054
1311877981.286894 0.119739 9.375588 -1.353054
1311877981.290398 0.598697 9.471380 -1.353054
1311877981.291391 0.598697 9.471380 -1.353054
1311877981.294650 0.407114 9.279797 -1.448846
1311877981.295656 0.407114 9.279797 -1.448846
1311877981.299273 0.023948 9.375588 -1.448846
1311877981.300259 0.023948 9.375588 -1.448846
1311877981.301518 0.023948 9.375588 -1.448846
1311877981.302512 0.023948 9.375588 -1.448846
1311877981.305798 0.502905 9.375588 -1.544637
1311877981.306889 0.502905 9.375588 -1.544637
1311877981.310431 0.395140 9.088214 -1.544637
1311877981.311414 0.395140 9.088214 -1.544637
1311877981.314659 0.455009 9.471380 -1.448846
1311877981.315642 0.455009 9.471380 -1.448846
1311877981.316793 0.455009 9.471380 -1.448846
1311877981.317932 0.455009 9.471380 -1.448846
1311877981.321562 0.323296 9.184006 -1.532663
1311877981.322532 0.323296 9.184006 -1.532663
1311877981.325769 0.407114 9.088214 -1.353054
1311877981.326776 0.407114 9.088214 -1.353054
1311877981.330444 0.838175 9.184006 -1.353054
1311877981.331396 0.838175 9.184006 -1.353054
1311877981.334661 0.407114 9.279797 -1.496741
1311877981.335634 0.407114 9.279797 -1.496741
1311877981.339372 0.227505 9.471380 -1.448846
1311877981.340441 0.227505 9.471380 -1.448846
1311877981.341398 0.227505 9.471380 -1.448846
1311877981.344680 0.754358 9.471380 -1.448846
1311877981.345708 0.754358 9.471380 -1.448846
1311877981.347475 0.754358 9.471380 -1.448846
1311877981.350454 0.419088 9.375588 -1.927803
1311877981.351525 0.419088 9.375588 -1.927803
1311877981.354704 0.407114 9.519276 -1.832012
1311877981.355684 0.407114 9.519276 -1.832012
1311877981.359271 0.598697 9.471380 -1.736220
1311877981.360383 0.598697 9.471380 -1.736220
1311877981.361526 0.598697 9.471380 -1.736220
1311877981.362529 0.598697 9.471380 -1.736220
1311877981.365892 0.598697 9.088214 -2.023594
1311877981.366787 0.598697 9.088214 -2.023594
1311877981.370526 0.993836 9.279797 -1.544637
1311877981.371534 0.993836 9.279797 -1.544637
1311877981.374716 0.407114 9.423484 -1.556611
1311877981.375654 0.407114 9.423484 -1.556611
1311877981.379299 0.323296 9.279797 -1.544637
1311877981.380314 0.323296 9.279797 -1.544637
1311877981.381285 0.323296 9.279797 -1.544637
1311877981.384688 0.993836 9.184006 -1.448846
1311877981.385673 0.993836 9.184006 -1.448846
1311877981.389142 0.502905 9.088214 -1.544637
1311877981.390280 0.502905 9.088214 -1.544637
1311877981.391683 0.502905 9.088214 -1.544637
1311877981.392535 0.502905 9.088214 -1.544637
1311877981.395786 0.023948 9.471380 -1.065680
1311877981.396906 0.023948 9.471380 -1.065680
1311877981.400415 0.598697 9.471380 -1.137524
1311877981.401529 0.598697 9.471380 -1.137524
1311877981.404677 0.323296 9.184006 -1.161471
1311877981.405657 0.323296 9.184006 -1.161471
1311877981.408931 0.323296 9.279797 -1.161471
1311877981.410306 0.323296 9.279797 -1.161471
1311877981.411720 0.323296 9.279797 -1.161471
1311877981.414676 0.227505 9.471380 -0.874097
1311877981.415766 0.227505 9.471380 -0.874097
1311877981.419297 0.371192 9.423484 -1.161471
1311877981.420563 0.371192 9.423484 -1.161471
1311877981.421654 0.371192 9.423484 -1.161471
1311877981.422776 0.371192 9.423484 -1.161471
1311877981.425766 0.754358 8.992423 -1.448846
1311877981.426878 0.754358 8.992423 -1.448846
1311877981.430395 0.071844 9.088214 -0.969888
1311877981.431530 0.071844 9.088214 -0.969888
1311877981.434786 -0.167635 9.279797 -1.161471
1311877981.435769 -0.167635 9.279797 -1.161471
1311877981.439298 0.431062 9.567171 -1.544637
1311877981.440511 0.431062 9.567171 -1.544637
1311877981.441658 0.431062 9.567171 -1.544637
1311877981.442666 0.431062 9.567171 -1.544637
1311877981.445909 0.227505 9.184006 -1.927803
1311877981.446768 0.227505 9.184006 -1.927803
1311877981.450527 -0.167635 9.758754 -1.496741
1311877981.451569 -0.167635 9.758754 -1.496741
1311877981.454647 -0.167635 9.662963 -1.544637
1311877981.455631 -0.167635 9.662963 -1.544637
1311877981.459289 0.227505 9.483354 -1.975699
1311877981.460358 0.227505 9.483354 -1.975699
1311877981.461547 0.227505 9.483354 -1.975699
1311877981.462638 0.227505 9.483354 -1.975699
1311877981.465643 0.323296 9.447432 -1.927803
1311877981.466767 0.323296 9.447432 -1.927803
1311877981.470432 -0.167635 9.279797 -1.448846
1311877981.471385 -0.167635 9.279797 -1.448846
1311877981.474692 0.023948 9.423484 -1.496741
1311877981.475639 0.023948 9.423484 -1.496741
1311877981.477148 0.023948 9.423484 -1.496741
1311877981.480517 0.886071 9.136110 -2.023594
1311877981.481533 0.886071 9.136110 -2.023594
1311877981.484641 0.371192 8.992423 -1.879907
1311877981.485777 0.371192 8.992423 -1.879907
1311877981.489412 -0.167635 9.279797 -1.161471
1311877981.490388 -0.167635 9.279797 -1.161471
1311877981.491775 -0.167635 9.279797 -1.161471
1311877981.492759 -0.167635 9.279797 -1.161471
1311877981.495756 0.407114 9.279797 -1.353054
1311877981.496760 0.407114 9.279797 -1.353054
1311877981.500388 0.754358 9.279797 -1.903855
1311877981.501374 0.754358 9.279797 -1.903855
1311877981.504684 0.395140 9.447432 -1.592533
1311877981.505797 0.395140 9.447432 -1.592533
1311877981.509310 -0.335270 9.447432 -1.161471
1311877981.510399 -0.335270 9.447432 -1.161471
1311877981.511665 -0.335270 9.447432 -1.161471
1311877981.512650 -0.335270 9.447432 -1.161471
1311877981.515794 0.706462 9.483354 -1.353054
1311877981.516749 0.706462 9.483354 -1.353054
1311877981.520415 0.814227 9.279797 -2.023594
1311877981.521555 0.814227 9.279797 -2.023594
1311877981.524659 -0.059870 9.088214 -1.927803
1311877981.525646 -0.059870 9.088214 -1.927803
1311877981.529392 0.119739 9.471380 -1.149497
1311877981.530412 0.119739 9.471380 -1.149497
1311877981.531635 0.119739 9.471380 -1.149497
1311877981.532629 0.119739 9.471380 -1.149497
1311877981.535892 0.598697 9.459406 -1.736220
1311877981.536875 0.598697 9.459406 -1.736220
1311877981.540660 0.455009 9.459406 -2.310969
1311877981.541709 0.455009 9.459406 -2.310969
1311877981.544692 0.023948 9.279797 -1.832012
1311877981.545808 0.023948 9.279797 -1.832012
1311877981.549317 0.023948 9.471380 -1.544637
1311877981.550382 0.023948 9.471380 -1.544637
1311877981.551665 0.023948 9.471380 -1.544637
1311877981.552661 0.023948 9.471380 -1.544637
1311877981.555776 0.419088 9.471380 -1.927803
1311877981.556918 0.419088 9.471380 -1.927803
1311877981.560389 0.598697 9.471380 -2.119386
1311877981.561374 0.598697 9.471380 -2.119386
1311877981.564646 -0.059870 9.088214 -1.927803
1311877981.565630 -0.059870 9.088214 -1.927803
1311877981.569406 0.323296 9.279797 -1.353054
1311877981.570391 0.323296 9.279797 -1.353054
1311877981.571669 0.323296 9.279797 -1.353054
1311877981.572663 0.323296 9.279797 -1.353054
1311877981.575953 0.790279 9.184006 -1.640429
1311877981.579283 0.598697 9.040318 -1.927803
1311877981.580386 0.598697 9.040318 -1.927803
1311877981.581531 0.598697 9.040318 -1.927803
1311877981.582634 0.598697 9.040318 -1.927803
1311877981.585995 0.455009 9.088214 -1.161471
1311877981.587267 0.455009 9.088214 -1.161471
1311877981.590540 0.227505 9.088214 -0.969888
1311877981.591513 0.227505 9.088214 -0.969888
1311877981.594649 0.778306 9.184006 -1.161471
1311877981.595637 0.778306 9.184006 -1.161471
1311877981.599385 0.802253 9.423484 -1.640429
1311877981.600379 0.802253 9.423484 -1.640429
1311877981.601632 0.802253 9.423484 -1.640429
1311877981.602694 0.802253 9.423484 -1.640429
1311877981.605971 0.071844 9.279797 -1.173445
1311877981.609280 0.455009 9.471380 -1.065680
1311877981.610388 0.455009 9.471380 -1.065680
1311877981.611562 0.455009 9.471380 -1.065680
1311877981.612674 0.455009 9.471380 -1.065680
1311877981.615932 0.407114 9.471380 -1.736220
1311877981.616891 0.407114 9.471380 -1.736220
1311877981.620569 0.227505 9.423484 -2.215177
1311877981.621513 0.227505 9.423484 -2.215177
1311877981.624657 0.407114 9.447432 -1.736220
1311877981.625753 0.407114 9.447432 -1.736220
1311877981.629266 0.227505 9.279797 -1.736220
1311877981.630258 0.227505 9.279797 -1.736220
1311877981.631649 0.227505 9.279797 -1.736220
1311877981.632525 0.227505 9.279797 -1.736220
1311877981.635768 0.407114 9.519276 -2.023594
1311877981.636767 0.407114 9.519276 -2.023594
1311877981.640391 0.598697 9.423484 -2.263073
1311877981.641384 0.598697 9.423484 -2.263073
1311877981.644656 0.071844 9.088214 -1.544637
1311877981.645942 0.071844 9.088214 -1.544637
1311877981.649413 0.407114 9.471380 -1.149497
1311877981.650407 0.407114 9.471380 -1.149497
1311877981.651771 0.407114 9.471380 -1.149497
1311877981.652633 0.407114 9.471380 -1.149497
1311877981.655948 0.407114 9.471380 -1.903855
1311877981.656880 0.407114 9.471380 -1.903855
1311877981.660386 0.071844 9.375588 -1.927803
1311877981.661491 0.071844 9.375588 -1.927803
1311877981.664654 0.502905 9.471380 -1.353054
1311877981.665634 0.502905 9.471380 -1.353054
1311877981.669298 0.227505 9.375588 -0.969888
1311877981.670394 0.227505 9.375588 -0.969888
1311877981.671640 0.227505 9.375588 -0.969888
1311877981.672671 0.227505 9.375588 -0.969888
1311877981.675782 0.455009 9.471380 -1.544637
1311877981.676914 0.455009 9.471380 -1.544637
1311877981.680393 0.754358 9.112162 -1.353054
1311877981.681416 0.754358 9.112162 -1.353054
1311877981.684695 0.227505 9.040318 -1.065680
1311877981.685763 0.227505 9.040318 -1.065680
1311877981.689279 0.227505 9.184006 -0.969888
1311877981.690393 0.227505 9.184006 -0.969888
1311877981.691641 0.227505 9.184006 -0.969888
1311877981.692503 0.227505 9.184006 -0.969888
1311877981.695747 0.598697 9.279797 -1.448846
1311877981.696867 0.598697 9.279797 -1.448846
1311877981.700450 0.227505 9.088214 -1.448846
1311877981.701379 0.227505 9.088214 -1.448846
1311877981.704644 0.407114 9.459406 -1.065680
1311877981.705751 0.407114 9.459406 -1.065680
1311877981.709270 0.598697 9.423484 -0.778306
1311877981.710405 0.598697 9.423484 -0.778306
1311877981.711683 0.598697 9.423484 -0.778306
1311877981.712636 0.598697 9.423484 -0.778306
1311877981.716452 0.502905 9.279797 -1.544637
1311877981.719386 0.598697 9.100188 -1.520689
1311877981.720437 0.598697 9.100188 -1.520689
1311877981.721658 0.598697 9.100188 -1.520689
1311877981.722642 0.598697 9.100188 -1.520689
1311877981.725840 0.227505 9.088214 -0.874097
1311877981.726866 0.227505 9.088214 -0.874097
1311877981.730430 0.323296 9.375588 -0.778306
1311877981.731380 0.323296 9.375588 -0.778306
1311877981.734774 0.802253 9.279797 -1.520689
1311877981.735879 0.802253 9.279797 -1.520689
1311877981.739715 0.455009 9.088214 -1.448846
1311877981.740559 0.455009 9.088214 -1.448846
1311877981.741657 0.455009 9.088214 -1.448846
1311877981.743377 0.455009 9.088214 -1.448846
1311877981.746423 0.035922 9.483354 -0.969888
1311877981.747437 0.035922 9.483354 -0.969888
1311877981.750827 0.035922 9.447432 -1.496741
1311877981.751810 0.035922 9.447432 -1.496741
1311877981.755406 0.706462 9.471380 -1.927803
1311877981.756413 0.706462 9.471380 -1.927803
1311877981.759761 0.407114 9.184006 -1.736220
1311877981.760745 0.407114 9.184006 -1.736220
1311877981.764392 0.023948 9.279797 -1.065680
1311877981.765382 0.023948 9.279797 -1.065680
1311877981.766634 0.023948 9.279797 -1.065680
1311877981.767632 0.023948 9.279797 -1.065680
1311877981.770773 0.407114 9.471380 -1.161471
1311877981.771760 0.407114 9.471380 -1.161471
1311877981.775545 0.993836 9.088214 -1.927803
1311877981.776533 0.993836 9.088214 -1.927803
1311877981.779636 0.395140 9.076240 -1.544637
1311877981.780909 0.395140 9.076240 -1.544637
1311877981.784396 0.023948 9.471380 -0.802253
1311877981.785538 0.023948 9.471380 -0.802253
1311877981.786767 0.023948 9.471380 -0.802253
