# accelerometer data
# file: 'rgbd_dataset_freiburg2_pioneer_slam2.bag'
# timestamp ax ay az
1311877812.317720 0.047896 9.279797 -1.736220
1311877812.318749 0.047896 9.279797 -1.736220
1311877812.319993 0.047896 9.279797 -1.736220
1311877812.320999 0.047896 9.279797 -1.736220
1311877812.324622 0.407114 9.279797 -1.640429
1311877812.325624 0.407114 9.279797 -1.640429
1311877812.328873 0.119739 9.184006 -1.736220
1311877812.329995 0.119739 9.184006 -1.736220
1311877812.333619 0.407114 9.471380 -1.556611
1311877812.334599 0.407114 9.471380 -1.556611
1311877812.337754 0.407114 9.375588 -1.544637
1311877812.338757 0.407114 9.375588 -1.544637
1311877812.339994 0.407114 9.375588 -1.544637
1311877812.340984 0.407114 9.375588 -1.544637
1311877812.344594 0.119739 9.423484 -1.544637
1311877812.345764 0.119739 9.423484 -1.544637
1311877812.348896 0.502905 9.423484 -1.353054
1311877812.349880 0.502905 9.423484 -1.353054
1311877812.353487 0.227505 9.184006 -1.568585
1311877812.354622 0.227505 9.184006 -1.568585
1311877812.357741 0.371192 9.279797 -1.568585
1311877812.358745 0.371192 9.279797 -1.568585
1311877812.360018 0.371192 9.279797 -1.568585
1311877812.361001 0.371192 9.279797 -1.568585
1311877812.364620 0.371192 9.459406 -1.544637
1311877812.365765 0.371192 9.459406 -1.544637
1311877812.368898 0.227505 9.184006 -1.544637
1311877812.369876 0.227505 9.184006 -1.544637
1311877812.373486 0.502905 9.375588 -1.640429
1311877812.374642 0.502905 9.375588 -1.640429
1311877812.375747 0.502905 9.375588 -1.640429
1311877812.378880 0.407114 9.279797 -1.544637
1311877812.379882 0.407114 9.279797 -1.544637
1311877812.383529 0.227505 9.184006 -1.448846
1311877812.384513 0.227505 9.184006 -1.448846
1311877812.387740 0.502905 9.423484 -1.544637
1311877812.388750 0.502905 9.423484 -1.544637
1311877812.389997 0.502905 9.423484 -1.544637
1311877812.390993 0.502905 9.423484 -1.544637
1311877812.394617 0.071844 9.112162 -1.592533
1311877812.395622 0.071844 9.112162 -1.592533
1311877812.398871 0.407114 9.423484 -1.568585
1311877812.399887 0.407114 9.423484 -1.568585
1311877812.403499 0.407114 9.483354 -1.544637
1311877812.404623 0.407114 9.483354 -1.544637
1311877812.405755 0.407114 9.483354 -1.544637
1311877812.408879 0.119739 9.184006 -1.640429
1311877812.410009 0.119739 9.184006 -1.640429
1311877812.413524 0.407114 9.471380 -1.544637
1311877812.414642 0.407114 9.471380 -1.544637
1311877812.417757 0.407114 9.423484 -1.353054
1311877812.418747 0.407114 9.423484 -1.353054
1311877812.420013 0.407114 9.423484 -1.353054
1311877812.420983 0.407114 9.423484 -1.353054
1311877812.424767 0.407114 9.279797 -1.544637
1311877812.425754 0.407114 9.279797 -1.544637
1311877812.428873 0.502905 9.375588 -1.544637
1311877812.429982 0.502905 9.375588 -1.544637
1311877812.433526 0.407114 9.112162 -1.592533
1311877812.434628 0.407114 9.112162 -1.592533
1311877812.437715 0.371192 9.279797 -1.544637
1311877812.438893 0.371192 9.279797 -1.544637
1311877812.439997 0.371192 9.279797 -1.544637
1311877812.441126 0.371192 9.279797 -1.544637
1311877812.444619 0.455009 9.279797 -1.592533
1311877812.445613 0.455009 9.279797 -1.592533
1311877812.448872 0.227505 9.279797 -1.640429
1311877812.449870 0.227505 9.279797 -1.640429
1311877812.453488 0.502905 9.471380 -1.544637
1311877812.454491 0.502905 9.471380 -1.544637
1311877812.457738 0.455009 9.279797 -1.544637
1311877812.458751 0.455009 9.279797 -1.544637
1311877812.459983 0.455009 9.279797 -1.544637
1311877812.460992 0.455009 9.279797 -1.544637
1311877812.464621 0.227505 9.279797 -1.640429
1311877812.465613 0.227505 9.279797 -1.640429
1311877812.468874 0.431062 9.471380 -1.544637
1311877812.469873 0.431062 9.471380 -1.544637
1311877812.473488 0.227505 9.279797 -1.556611
1311877812.474504 0.227505 9.279797 -1.556611
1311877812.477728 0.323296 9.279797 -1.592533
1311877812.478740 0.323296 9.279797 -1.592533
1311877812.479983 0.323296 9.279797 -1.592533
1311877812.480989 0.323296 9.279797 -1.592533
1311877812.484625 0.407114 9.471380 -1.544637
1311877812.485623 0.407114 9.471380 -1.544637
1311877812.488866 0.119739 9.136110 -1.592533
1311877812.489860 0.119739 9.136110 -1.592533
1311877812.493495 0.455009 9.375588 -1.496741
1311877812.494492 0.455009 9.375588 -1.496741
1311877812.497745 0.407114 9.447432 -1.544637
1311877812.498730 0.407114 9.447432 -1.544637
1311877812.499991 0.407114 9.447432 -1.544637
1311877812.500989 0.407114 9.447432 -1.544637
1311877812.504624 0.323296 9.279797 -1.736220
1311877812.505739 0.323296 9.279797 -1.736220
1311877812.509009 0.502905 9.471380 -1.353054
1311877812.510013 0.502905 9.471380 -1.353054
1311877812.513635 0.227505 9.184006 -1.640429
1311877812.514628 0.227505 9.184006 -1.640429
1311877812.517872 0.227505 9.279797 -1.556611
1311877812.518869 0.227505 9.279797 -1.556611
1311877812.520502 0.227505 9.279797 -1.556611
1311877812.523618 0.407114 9.459406 -1.496741
1311877812.524619 0.407114 9.459406 -1.496741
1311877812.527870 0.119739 9.136110 -1.640429
1311877812.528836 0.119739 9.136110 -1.640429
1311877812.532501 0.407114 9.471380 -1.927803
1311877812.533489 0.407114 9.471380 -1.927803
1311877812.534748 0.407114 9.471380 -1.927803
1311877812.535748 0.407114 9.471380 -1.927803
1311877812.538992 0.395140 9.279797 -1.640429
1311877812.540123 0.395140 9.279797 -1.640429
1311877812.543620 0.035922 9.423484 -1.736220
1311877812.544621 0.035922 9.423484 -1.736220
1311877812.547870 0.502905 9.471380 -1.544637
1311877812.548871 0.502905 9.471380 -1.544637
1311877812.552507 0.407114 9.279797 -1.592533
1311877812.553622 0.407114 9.279797 -1.592533
1311877812.554613 0.407114 9.279797 -1.592533
1311877812.557874 0.323296 9.279797 -1.736220
1311877812.558836 0.323296 9.279797 -1.736220
1311877812.562506 0.419088 9.423484 -1.544637
1311877812.563480 0.419088 9.423484 -1.544637
1311877812.564744 0.419088 9.423484 -1.544637
1311877812.565738 0.419088 9.423484 -1.544637
1311877812.568873 0.227505 9.184006 -1.568585
1311877812.569980 0.227505 9.184006 -1.568585
1311877812.573488 0.407114 9.471380 -1.496741
1311877812.574620 0.407114 9.471380 -1.496741
1311877812.577760 0.407114 9.279797 -1.544637
1311877812.578873 0.407114 9.279797 -1.544637
1311877812.580005 0.407114 9.279797 -1.544637
1311877812.580989 0.407114 9.279797 -1.544637
1311877812.584626 0.119739 9.375588 -1.568585
1311877812.585747 0.119739 9.375588 -1.568585
1311877812.588876 0.407114 9.459406 -1.544637
1311877812.589980 0.407114 9.459406 -1.544637
1311877812.593638 0.071844 9.279797 -1.568585
1311877812.594616 0.071844 9.279797 -1.568585
1311877812.597874 0.323296 9.279797 -1.568585
1311877812.598854 0.323296 9.279797 -1.568585
1311877812.600118 0.323296 9.279797 -1.568585
1311877812.601174 0.323296 9.279797 -1.568585
1311877812.604666 0.407114 9.279797 -1.496741
1311877812.605742 0.407114 9.279797 -1.496741
1311877812.608878 0.035922 9.112162 -1.556611
1311877812.609988 0.035922 9.112162 -1.556611
1311877812.613157 0.419088 9.423484 -1.496741
1311877812.614487 0.419088 9.423484 -1.496741
1311877812.617717 0.407114 9.459406 -1.209367
1311877812.618846 0.407114 9.459406 -1.209367
1311877812.619976 0.407114 9.459406 -1.209367
1311877812.620958 0.407114 9.459406 -1.209367
1311877812.624594 0.407114 9.279797 -1.544637
1311877812.625710 0.407114 9.279797 -1.544637
1311877812.628829 0.407114 9.471380 -1.544637
1311877812.630104 0.407114 9.471380 -1.544637
1311877812.633629 0.323296 9.279797 -1.592533
1311877812.634610 0.323296 9.279797 -1.592533
1311877812.637917 0.227505 9.279797 -1.544637
1311877812.638735 0.227505 9.279797 -1.544637
1311877812.639980 0.227505 9.279797 -1.544637
1311877812.641026 0.227505 9.279797 -1.544637
1311877812.644748 0.407114 9.375588 -1.544637
1311877812.645750 0.407114 9.375588 -1.544637
1311877812.648873 0.227505 9.112162 -1.640429
1311877812.649878 0.227505 9.112162 -1.640429
1311877812.653483 0.431062 9.423484 -1.496741
1311877812.654610 0.431062 9.423484 -1.496741
1311877812.657722 0.419088 9.375588 -1.544637
1311877812.658751 0.419088 9.375588 -1.544637
1311877812.659995 0.419088 9.375588 -1.544637
1311877812.660993 0.419088 9.375588 -1.544637
1311877812.664614 0.323296 9.279797 -1.544637
1311877812.665603 0.323296 9.279797 -1.544637
1311877812.668854 0.407114 9.471380 -1.448846
1311877812.669981 0.407114 9.471380 -1.448846
1311877812.673492 0.323296 9.279797 -1.520689
1311877812.674741 0.323296 9.279797 -1.520689
1311877812.675740 0.323296 9.279797 -1.520689
1311877812.678837 0.407114 9.375588 -1.496741
1311877812.679993 0.407114 9.375588 -1.496741
1311877812.683491 0.407114 9.279797 -1.544637
1311877812.684463 0.407114 9.279797 -1.544637
1311877812.685616 0.407114 9.279797 -1.544637
1311877812.688870 0.227505 9.136110 -1.640429
1311877812.689835 0.227505 9.136110 -1.640429
1311877812.693498 0.407114 9.279797 -1.544637
1311877812.694610 0.407114 9.279797 -1.544637
1311877812.695584 0.407114 9.279797 -1.544637
1311877812.698964 0.323296 9.279797 -1.496741
1311877812.699985 0.323296 9.279797 -1.496741
1311877812.703497 0.227505 9.136110 -1.544637
1311877812.704606 0.227505 9.136110 -1.544637
1311877812.705736 0.227505 9.136110 -1.544637
1311877812.708908 0.502905 9.375588 -1.544637
1311877812.709990 0.502905 9.375588 -1.544637
1311877812.713554 0.323296 9.184006 -1.736220
1311877812.714746 0.323296 9.184006 -1.736220
1311877812.715636 0.323296 9.184006 -1.736220
1311877812.718914 0.371192 9.375588 -1.736220
1311877812.719989 0.371192 9.375588 -1.736220
1311877812.723484 0.407114 9.375588 -1.592533
1311877812.724612 0.407114 9.375588 -1.592533
1311877812.725587 0.407114 9.375588 -1.592533
1311877812.728850 0.119739 9.184006 -1.736220
1311877812.729865 0.119739 9.184006 -1.736220
1311877812.733607 0.407114 9.459406 -1.640429
1311877812.734705 0.407114 9.459406 -1.640429
1311877812.737834 0.407114 9.279797 -1.640429
1311877812.738851 0.407114 9.279797 -1.640429
1311877812.740117 0.407114 9.279797 -1.640429
1311877812.741140 0.407114 9.279797 -1.640429
1311877812.744617 0.323296 9.184006 -1.544637
1311877812.745744 0.323296 9.184006 -1.544637
1311877812.748862 0.407114 9.471380 -1.520689
1311877812.750002 0.407114 9.471380 -1.520689
1311877812.753621 0.227505 9.184006 -1.592533
1311877812.754608 0.227505 9.184006 -1.592533
1311877812.757866 0.407114 9.279797 -1.544637
1311877812.758866 0.407114 9.279797 -1.544637
1311877812.760487 0.407114 9.279797 -1.544637
1311877812.763616 0.419088 9.375588 -1.592533
1311877812.764730 0.419088 9.375588 -1.592533
1311877812.767832 0.227505 9.184006 -1.736220
1311877812.768851 0.227505 9.184006 -1.736220
1311877812.772493 0.419088 9.471380 -1.568585
1311877812.773640 0.419088 9.471380 -1.568585
1311877812.774614 0.419088 9.471380 -1.568585
1311877812.777848 0.598697 9.279797 -1.544637
1311877812.778852 0.598697 9.279797 -1.544637
1311877812.782485 0.227505 9.112162 -1.640429
1311877812.783503 0.227505 9.112162 -1.640429
1311877812.784484 0.227505 9.112162 -1.640429
1311877812.787846 0.598697 9.375588 -1.544637
1311877812.788858 0.598697 9.375588 -1.544637
1311877812.792119 0.323296 9.279797 -1.568585
1311877812.793514 0.323296 9.279797 -1.568585
1311877812.794733 0.323296 9.279797 -1.568585
1311877812.795764 0.323296 9.279797 -1.568585
1311877812.798980 0.407114 9.279797 -1.568585
1311877812.799987 0.407114 9.279797 -1.568585
1311877812.803602 0.455009 9.423484 -1.592533
1311877812.804497 0.455009 9.423484 -1.592533
1311877812.807841 0.023948 9.279797 -1.556611
1311877812.808736 0.023948 9.279797 -1.556611
1311877812.809980 0.023948 9.279797 -1.556611
1311877812.811001 0.023948 9.279797 -1.556611
1311877812.814600 0.502905 9.447432 -1.568585
1311877812.815613 0.502905 9.447432 -1.568585
1311877812.818865 0.371192 9.279797 -1.592533
1311877812.819832 0.371192 9.279797 -1.592533
1311877812.823487 0.047896 9.184006 -1.544637
1311877812.824607 0.047896 9.184006 -1.544637
1311877812.825612 0.047896 9.184006 -1.544637
1311877812.828748 0.502905 9.471380 -1.556611
1311877812.829858 0.502905 9.471380 -1.556611
1311877812.833118 0.323296 9.279797 -1.736220
1311877812.834470 0.323296 9.279797 -1.736220
1311877812.837711 0.227505 9.423484 -1.544637
1311877812.838878 0.227505 9.423484 -1.544637
1311877812.839986 0.227505 9.423484 -1.544637
1311877812.841095 0.227505 9.423484 -1.544637
1311877812.844656 0.455009 9.279797 -1.544637
1311877812.845582 0.455009 9.279797 -1.544637
1311877812.848855 0.071844 9.136110 -1.544637
1311877812.849849 0.071844 9.136110 -1.544637
1311877812.852836 0.455009 9.423484 -1.544637
1311877812.853982 0.455009 9.423484 -1.544637
1311877812.856985 0.431062 9.279797 -1.568585
1311877812.858477 0.431062 9.279797 -1.568585
1311877812.859758 0.431062 9.279797 -1.568585
1311877812.860761 0.431062 9.279797 -1.568585
1311877812.863839 0.323296 9.279797 -1.544637
1311877812.864960 0.323296 9.279797 -1.544637
1311877812.868611 0.598697 9.471380 -1.496741
1311877812.869779 0.598697 9.471380 -1.496741
1311877812.872850 0.407114 9.279797 -1.496741
1311877812.873711 0.407114 9.279797 -1.496741
1311877812.874969 0.407114 9.279797 -1.496741
1311877812.875956 0.407114 9.279797 -1.496741
1311877812.879595 0.407114 9.375588 -1.544637
1311877812.880726 0.407114 9.375588 -1.544637
1311877812.885745 0.407114 9.375588 -1.544637
1311877812.887477 0.323296 9.279797 -1.640429
1311877812.888456 0.323296 9.279797 -1.640429
1311877812.889712 0.323296 9.279797 -1.640429
1311877812.890724 0.323296 9.279797 -1.640429
1311877812.893993 0.455009 9.471380 -1.544637
1311877812.894981 0.455009 9.471380 -1.544637
1311877812.898990 0.407114 9.423484 -1.448846
1311877812.899991 0.407114 9.423484 -1.448846
1311877812.900981 0.407114 9.423484 -1.448846
1311877812.903983 0.227505 9.375588 -1.568585
1311877812.904967 0.227505 9.375588 -1.568585
1311877812.908625 0.455009 9.423484 -1.544637
1311877812.909601 0.455009 9.423484 -1.544637
1311877812.912746 0.323296 9.136110 -1.544637
1311877812.913721 0.323296 9.136110 -1.544637
1311877812.914981 0.323296 9.136110 -1.544637
1311877812.915948 0.323296 9.136110 -1.544637
1311877812.919617 0.419088 9.423484 -1.544637
1311877812.920576 0.419088 9.423484 -1.544637
1311877812.923775 0.598697 9.471380 -1.544637
1311877812.924846 0.598697 9.471380 -1.544637
1311877812.928505 0.227505 9.112162 -1.568585
1311877812.929732 0.227505 9.112162 -1.568585
1311877812.930715 0.227505 9.112162 -1.568585
1311877812.933919 0.431062 9.447432 -1.544637
1311877812.934834 0.431062 9.447432 -1.544637
1311877812.938616 0.407114 9.279797 -1.640429
1311877812.939794 0.407114 9.279797 -1.640429
1311877812.942863 0.323296 9.184006 -1.640429
1311877812.943836 0.323296 9.184006 -1.640429
1311877812.944997 0.323296 9.184006 -1.640429
1311877812.946484 0.323296 9.184006 -1.640429
1311877812.949703 0.802253 9.471380 -1.544637
1311877812.950722 0.802253 9.471380 -1.544637
1311877812.953956 0.323296 9.184006 -1.544637
1311877812.954982 0.323296 9.184006 -1.544637
1311877812.958489 0.227505 9.423484 -1.496741
1311877812.959591 0.227505 9.423484 -1.496741
1311877812.962744 0.407114 9.471380 -1.520689
1311877812.963767 0.407114 9.471380 -1.520689
1311877812.965123 0.407114 9.471380 -1.520689
1311877812.966093 0.407114 9.471380 -1.520689
1311877812.969778 0.035922 9.184006 -1.736220
1311877812.970736 0.035922 9.184006 -1.736220
1311877812.973965 0.407114 9.471380 -1.544637
1311877812.975121 0.407114 9.471380 -1.544637
1311877812.978611 0.407114 9.279797 -1.544637
1311877812.979717 0.407114 9.279797 -1.544637
1311877812.982847 0.227505 9.088214 -1.544637
1311877812.983831 0.227505 9.088214 -1.544637
1311877812.985081 0.227505 9.088214 -1.544637
1311877812.986451 0.227505 9.088214 -1.544637
1311877812.989743 0.419088 9.471380 -1.544637
1311877812.990728 0.419088 9.471380 -1.544637
1311877812.994003 0.323296 9.184006 -1.592533
1311877812.994960 0.323296 9.184006 -1.592533
1311877812.998604 0.323296 9.375588 -1.544637
1311877812.999579 0.323296 9.375588 -1.544637
1311877813.002841 0.407114 9.423484 -1.556611
1311877813.004092 0.407114 9.423484 -1.556611
1311877813.005110 0.407114 9.423484 -1.556611
1311877813.006462 0.407114 9.423484 -1.556611
1311877813.009876 0.227505 9.184006 -1.592533
1311877813.012829 0.407114 9.459406 -1.640429
1311877813.013819 0.407114 9.459406 -1.640429
1311877813.017104 0.407114 9.423484 -1.544637
1311877813.018474 0.407114 9.423484 -1.544637
1311877813.019819 0.407114 9.423484 -1.544637
1311877813.020825 0.407114 9.423484 -1.544637
1311877813.023982 0.323296 9.279797 -1.640429
1311877813.024966 0.323296 9.279797 -1.640429
1311877813.028471 0.502905 9.447432 -1.736220
1311877813.029588 0.502905 9.447432 -1.736220
1311877813.032851 0.407114 9.279797 -1.736220
1311877813.034007 0.407114 9.279797 -1.736220
1311877813.035098 0.407114 9.279797 -1.736220
1311877813.036129 0.407114 9.279797 -1.736220
1311877813.039609 0.323296 9.459406 -1.640429
1311877813.040765 0.323296 9.459406 -1.640429
1311877813.043846 0.407114 9.375588 -1.544637
1311877813.044858 0.407114 9.375588 -1.544637
1311877813.048574 0.071844 9.112162 -1.544637
1311877813.049448 0.071844 9.112162 -1.544637
1311877813.052781 0.407114 9.279797 -1.544637
1311877813.053724 0.407114 9.279797 -1.544637
1311877813.054976 0.407114 9.279797 -1.544637
1311877813.055950 0.407114 9.279797 -1.544637
1311877813.059599 0.395140 9.184006 -1.592533
1311877813.060594 0.395140 9.184006 -1.592533
1311877813.063868 0.227505 9.136110 -1.544637
1311877813.064852 0.227505 9.136110 -1.544637
1311877813.068122 0.598697 9.423484 -1.544637
1311877813.069468 0.598697 9.423484 -1.544637
1311877813.072589 0.502905 9.279797 -1.544637
1311877813.073722 0.502905 9.279797 -1.544637
1311877813.074928 0.502905 9.279797 -1.544637
1311877813.075964 0.502905 9.279797 -1.544637
1311877813.079580 0.371192 9.423484 -1.448846
1311877813.080566 0.371192 9.423484 -1.448846
1311877813.083832 0.502905 9.423484 -1.544637
1311877813.084818 0.502905 9.423484 -1.544637
1311877813.087952 0.119739 9.279797 -1.532663
1311877813.089076 0.119739 9.279797 -1.532663
1311877813.092597 0.407114 9.447432 -1.544637
1311877813.093837 0.407114 9.447432 -1.544637
1311877813.094850 0.407114 9.447432 -1.544637
1311877813.096000 0.407114 9.447432 -1.544637
1311877813.099511 0.407114 9.279797 -1.592533
1311877813.102594 0.227505 9.136110 -1.736220
1311877813.103499 0.227505 9.136110 -1.736220
1311877813.104837 0.227505 9.136110 -1.736220
1311877813.105829 0.227505 9.136110 -1.736220
1311877813.109016 0.455009 9.423484 -1.544637
1311877813.109987 0.455009 9.423484 -1.544637
1311877813.113601 0.227505 9.184006 -1.544637
1311877813.114612 0.227505 9.184006 -1.544637
1311877813.117824 0.119739 9.184006 -1.544637
1311877813.118843 0.119739 9.184006 -1.544637
1311877813.120071 0.119739 9.184006 -1.544637
1311877813.121068 0.119739 9.184006 -1.544637
1311877813.124730 0.407114 9.471380 -1.544637
1311877813.126003 0.407114 9.471380 -1.544637
1311877813.128978 0.227505 9.184006 -1.592533
1311877813.130139 0.227505 9.184006 -1.592533
1311877813.133661 0.395140 9.471380 -1.592533
1311877813.134631 0.395140 9.471380 -1.592533
1311877813.137875 0.407114 9.279797 -1.544637
1311877813.138860 0.407114 9.279797 -1.544637
1311877813.140090 0.407114 9.279797 -1.544637
1311877813.141097 0.407114 9.279797 -1.544637
1311877813.144591 0.227505 9.279797 -1.544637
1311877813.145831 0.227505 9.279797 -1.544637
1311877813.148826 0.502905 9.375588 -1.496741
1311877813.149938 0.502905 9.375588 -1.496741
1311877813.153580 0.407114 9.279797 -1.257263
1311877813.154566 0.407114 9.279797 -1.257263
1311877813.157834 0.227505 9.279797 -1.448846
1311877813.158842 0.227505 9.279797 -1.448846
1311877813.162482 0.455009 9.423484 -1.448846
1311877813.163609 0.455009 9.423484 -1.448846
1311877813.164777 0.455009 9.423484 -1.448846
1311877813.165835 0.455009 9.423484 -1.448846
1311877813.169019 0.023948 9.375588 -1.544637
1311877813.170104 0.023948 9.375588 -1.544637
1311877813.173623 0.407114 9.471380 -1.592533
1311877813.174594 0.407114 9.471380 -1.592533
1311877813.177744 0.455009 9.375588 -1.544637
1311877813.178706 0.455009 9.375588 -1.544637
1311877813.180099 0.455009 9.375588 -1.544637
1311877813.180944 0.455009 9.375588 -1.544637
1311877813.184587 0.323296 9.279797 -1.496741
1311877813.185694 0.323296 9.279797 -1.496741
1311877813.188832 0.407114 9.471380 -1.544637
1311877813.189829 0.407114 9.471380 -1.544637
1311877813.193539 0.323296 9.184006 -1.592533
1311877813.194470 0.323296 9.184006 -1.592533
1311877813.197743 0.227505 9.279797 -1.544637
1311877813.198881 0.227505 9.279797 -1.544637
1311877813.200094 0.227505 9.279797 -1.544637
1311877813.201002 0.227505 9.279797 -1.544637
1311877813.204648 0.407114 9.471380 -1.496741
1311877813.205710 0.407114 9.471380 -1.496741
1311877813.208828 0.227505 9.136110 -1.556611
1311877813.209813 0.227505 9.136110 -1.556611
1311877813.213128 0.407114 9.423484 -1.544637
1311877813.214499 0.407114 9.423484 -1.544637
1311877813.217727 0.407114 9.447432 -1.568585
1311877813.218737 0.407114 9.447432 -1.568585
1311877813.219850 0.407114 9.447432 -1.568585
1311877813.220962 0.407114 9.447432 -1.568585
1311877813.224471 0.227505 9.279797 -1.592533
1311877813.225576 0.227505 9.279797 -1.592533
1311877813.228719 0.419088 9.471380 -1.640429
1311877813.229835 0.419088 9.471380 -1.640429
1311877813.232846 0.227505 9.279797 -1.879907
1311877813.233843 0.227505 9.279797 -1.879907
1311877813.237596 0.227505 9.184006 -1.592533
1311877813.238603 0.227505 9.184006 -1.592533
1311877813.239747 0.227505 9.184006 -1.592533
1311877813.240874 0.227505 9.184006 -1.592533
1311877813.244648 0.407114 9.471380 -1.544637
1311877813.247615 0.119739 9.184006 -1.736220
1311877813.248720 0.119739 9.184006 -1.736220
1311877813.249714 0.119739 9.184006 -1.736220
1311877813.252836 0.395140 9.423484 -1.592533
1311877813.253819 0.395140 9.423484 -1.592533
1311877813.257458 0.455009 9.279797 -1.532663
1311877813.258600 0.455009 9.279797 -1.532663
1311877813.259571 0.455009 9.279797 -1.532663
1311877813.262842 0.227505 9.136110 -1.640429
1311877813.263847 0.227505 9.136110 -1.640429
1311877813.267473 0.431062 9.471380 -1.544637
1311877813.268635 0.431062 9.471380 -1.544637
1311877813.269860 0.431062 9.471380 -1.544637
1311877813.272900 0.323296 9.279797 -1.544637
1311877813.273829 0.323296 9.279797 -1.544637
1311877813.277090 0.407114 9.279797 -1.556611
1311877813.278461 0.407114 9.279797 -1.556611
1311877813.279694 0.407114 9.279797 -1.556611
1311877813.280693 0.407114 9.279797 -1.556611
1311877813.283848 0.407114 9.471380 -1.544637
1311877813.284950 0.407114 9.471380 -1.544637
1311877813.288459 0.119739 9.184006 -1.736220
1311877813.289590 0.119739 9.184006 -1.736220
1311877813.292966 0.407114 9.375588 -1.544637
1311877813.293982 0.407114 9.375588 -1.544637
1311877813.294958 0.407114 9.375588 -1.544637
1311877813.299572 0.407114 9.423484 -1.496741
1311877813.302645 0.071844 9.184006 -1.736220
1311877813.303849 0.071844 9.184006 -1.736220
1311877813.304735 0.071844 9.184006 -1.736220
1311877813.307850 0.455009 9.447432 -1.640429
1311877813.308944 0.455009 9.447432 -1.640429
1311877813.312492 0.323296 9.279797 -1.544637
1311877813.313601 0.323296 9.279797 -1.544637
1311877813.314713 0.323296 9.279797 -1.544637
1311877813.315717 0.323296 9.279797 -1.544637
1311877813.318964 0.323296 9.279797 -1.640429
1311877813.320078 0.323296 9.279797 -1.640429
1311877813.323605 0.502905 9.375588 -1.544637
1311877813.324597 0.502905 9.375588 -1.544637
1311877813.327842 0.227505 9.184006 -1.592533
1311877813.328871 0.227505 9.184006 -1.592533
1311877813.332484 0.407114 9.459406 -1.544637
1311877813.333654 0.407114 9.459406 -1.544637
1311877813.334868 0.407114 9.459406 -1.544637
1311877813.337850 0.407114 9.375588 -1.544637
1311877813.338871 0.407114 9.375588 -1.544637
1311877813.342607 0.227505 9.184006 -1.903855
1311877813.343593 0.227505 9.184006 -1.903855
1311877813.344725 0.227505 9.184006 -1.903855
1311877813.345841 0.227505 9.184006 -1.903855
1311877813.349069 0.502905 9.471380 -1.257263
1311877813.350060 0.502905 9.471380 -1.257263
1311877813.353703 0.227505 9.184006 -1.544637
1311877813.354688 0.227505 9.184006 -1.544637
1311877813.357863 0.227505 9.279797 -1.544637
1311877813.358826 0.227505 9.279797 -1.544637
1311877813.362607 0.502905 9.471380 -1.544637
1311877813.363703 0.502905 9.471380 -1.544637
1311877813.364612 0.502905 9.471380 -1.544637
1311877813.367839 0.227505 9.112162 -1.736220
1311877813.368865 0.227505 9.112162 -1.736220
1311877813.372615 0.227505 9.423484 -1.640429
1311877813.373456 0.227505 9.423484 -1.640429
1311877813.374755 0.227505 9.423484 -1.640429
1311877813.375717 0.227505 9.423484 -1.640429
1311877813.378970 0.371192 9.184006 -1.544637
1311877813.379974 0.371192 9.184006 -1.544637
1311877813.383610 0.119739 9.136110 -1.736220
1311877813.384561 0.119739 9.136110 -1.736220
1311877813.387847 0.407114 9.471380 -1.544637
1311877813.388840 0.407114 9.471380 -1.544637
1311877813.392338 0.407114 9.279797 -1.544637
1311877813.393474 0.407114 9.279797 -1.544637
1311877813.394706 0.407114 9.279797 -1.544637
1311877813.395735 0.407114 9.279797 -1.544637
1311877813.398968 0.323296 9.279797 -1.544637
1311877813.401454 0.323296 9.279797 -1.544637
1311877813.403630 0.502905 9.423484 -1.544637
1311877813.404600 0.502905 9.423484 -1.544637
1311877813.407729 0.227505 9.184006 -1.736220
1311877813.408844 0.227505 9.184006 -1.736220
1311877813.410088 0.227505 9.184006 -1.736220
1311877813.411093 0.227505 9.184006 -1.736220
1311877813.414584 0.455009 9.471380 -1.544637
1311877813.415706 0.455009 9.471380 -1.544637
1311877813.418985 0.407114 9.279797 -1.544637
1311877813.419946 0.407114 9.279797 -1.544637
1311877813.423456 0.023948 9.279797 -1.592533
1311877813.424570 0.023948 9.279797 -1.592533
1311877813.427716 0.502905 9.447432 -1.544637
1311877813.428742 0.502905 9.447432 -1.544637
1311877813.430002 0.502905 9.447432 -1.544637
1311877813.431116 0.502905 9.447432 -1.544637
1311877813.434741 0.227505 9.184006 -1.544637
1311877813.435720 0.227505 9.184006 -1.544637
1311877813.438863 0.227505 9.184006 -1.640429
1311877813.439936 0.227505 9.184006 -1.640429
1311877813.443590 0.407114 9.423484 -1.640429
1311877813.444572 0.407114 9.423484 -1.640429
1311877813.447740 0.119739 9.279797 -1.640429
1311877813.448696 0.119739 9.279797 -1.640429
1311877813.449935 0.119739 9.279797 -1.640429
1311877813.451090 0.119739 9.279797 -1.640429
1311877813.454729 0.502905 9.471380 -1.544637
1311877813.455716 0.502905 9.471380 -1.544637
1311877813.458902 0.407114 9.279797 -1.544637
1311877813.459961 0.407114 9.279797 -1.544637
1311877813.465086 0.323296 9.279797 -1.640429
1311877813.467554 0.323296 9.471380 -1.736220
1311877813.468509 0.323296 9.471380 -1.736220
1311877813.469620 0.323296 9.471380 -1.736220
1311877813.472885 0.407114 9.279797 -1.556611
1311877813.473997 0.407114 9.279797 -1.556611
1311877813.477108 0.323296 9.184006 -1.568585
1311877813.478438 0.323296 9.184006 -1.568585
1311877813.479714 0.323296 9.184006 -1.568585
1311877813.480697 0.323296 9.184006 -1.568585
1311877813.483821 0.455009 9.375588 -1.544637
1311877813.484934 0.455009 9.375588 -1.544637
1311877813.488487 0.071844 9.279797 -1.544637
1311877813.489614 0.071844 9.279797 -1.544637
1311877813.492717 0.323296 9.423484 -1.736220
1311877813.493830 0.323296 9.423484 -1.736220
1311877813.495478 0.323296 9.423484 -1.736220
1311877813.498627 0.407114 9.279797 -1.544637
1311877813.499738 0.407114 9.279797 -1.544637
1311877813.503788 0.227505 9.184006 -1.736220
1311877813.504793 0.227505 9.184006 -1.736220
1311877813.505850 0.227505 9.184006 -1.736220
1311877813.508976 0.455009 9.471380 -1.544637
1311877813.509973 0.455009 9.471380 -1.544637
1311877813.513606 0.323296 9.279797 -1.640429
1311877813.514598 0.323296 9.279797 -1.640429
1311877813.517821 0.371192 9.279797 -1.556611
1311877813.518807 0.371192 9.279797 -1.556611
1311877813.522448 0.502905 9.471380 -1.544637
1311877813.523590 0.502905 9.471380 -1.544637
1311877813.524610 0.502905 9.471380 -1.544637
1311877813.527852 0.227505 9.088214 -1.640429
1311877813.528823 0.227505 9.088214 -1.640429
1311877813.532490 0.407114 9.279797 -1.544637
1311877813.533591 0.407114 9.279797 -1.544637
1311877813.535141 0.407114 9.279797 -1.544637
1311877813.537979 0.455009 9.375588 -1.544637
1311877813.539159 0.455009 9.375588 -1.544637
1311877813.542457 0.227505 9.279797 -1.736220
1311877813.543591 0.227505 9.279797 -1.736220
1311877813.544717 0.227505 9.279797 -1.736220
1311877813.545702 0.227505 9.279797 -1.736220
1311877813.548945 0.502905 9.471380 -1.640429
1311877813.549933 0.502905 9.471380 -1.640429
1311877813.553589 0.323296 9.279797 -1.832012
1311877813.554703 0.323296 9.279797 -1.832012
1311877813.557910 0.407114 9.184006 -1.544637
1311877813.558844 0.407114 9.184006 -1.544637
1311877813.562489 0.455009 9.471380 -1.544637
1311877813.563455 0.455009 9.471380 -1.544637
1311877813.564736 0.455009 9.471380 -1.544637
1311877813.565850 0.455009 9.471380 -1.544637
1311877813.569003 0.227505 9.184006 -1.736220
1311877813.570009 0.227505 9.184006 -1.736220
1311877813.573707 0.431062 9.375588 -1.640429
1311877813.574698 0.431062 9.375588 -1.640429
1311877813.577950 0.407114 9.279797 -1.640429
1311877813.578805 0.407114 9.279797 -1.640429
1311877813.582599 0.227505 9.184006 -1.592533
1311877813.583503 0.227505 9.184006 -1.592533
1311877813.584726 0.227505 9.184006 -1.592533
1311877813.585846 0.227505 9.184006 -1.592533
1311877813.588850 0.455009 9.471380 -1.556611
1311877813.589961 0.455009 9.471380 -1.556611
1311877813.593457 0.407114 9.136110 -1.544637
1311877813.594517 0.407114 9.136110 -1.544637
1311877813.597719 0.227505 9.279797 -1.544637
1311877813.598824 0.227505 9.279797 -1.544637
1311877813.599958 0.227505 9.279797 -1.544637
1311877813.601124 0.227505 9.279797 -1.544637
1311877813.604637 0.407114 9.279797 -1.544637
1311877813.605631 0.407114 9.279797 -1.544637
1311877813.608904 0.119739 9.088214 -1.640429
1311877813.609924 0.119739 9.088214 -1.640429
1311877813.613486 0.407114 9.471380 -1.640429
1311877813.614459 0.407114 9.471380 -1.640429
1311877813.617708 0.419088 9.471380 -1.544637
1311877813.618716 0.419088 9.471380 -1.544637
1311877813.619972 0.419088 9.471380 -1.544637
1311877813.621064 0.419088 9.471380 -1.544637
1311877813.624575 0.119739 9.279797 -1.736220
1311877813.625577 0.119739 9.279797 -1.736220
1311877813.630046 0.419088 9.423484 -1.532663
1311877813.632515 0.407114 9.279797 -1.640429
1311877813.633595 0.407114 9.279797 -1.640429
1311877813.634720 0.407114 9.279797 -1.640429
1311877813.637936 0.227505 9.184006 -1.640429
1311877813.638956 0.227505 9.184006 -1.640429
1311877813.642472 0.598697 9.471380 -1.544637
1311877813.643574 0.598697 9.471380 -1.544637
1311877813.644685 0.598697 9.471380 -1.544637
1311877813.645809 0.598697 9.471380 -1.544637
1311877813.648968 0.119739 9.279797 -1.640429
1311877813.650105 0.119739 9.279797 -1.640429
1311877813.653566 0.323296 9.471380 -1.544637
1311877813.654588 0.323296 9.471380 -1.544637
1311877813.657873 0.502905 9.447432 -1.556611
1311877813.658829 0.502905 9.447432 -1.556611
1311877813.660344 0.502905 9.447432 -1.556611
1311877813.661456 0.502905 9.447432 -1.556611
1311877813.664739 0.323296 9.279797 -1.640429
1311877813.665887 0.323296 9.279797 -1.640429
1311877813.668957 0.502905 9.483354 -1.544637
1311877813.670334 0.502905 9.483354 -1.544637
1311877813.673629 0.371192 9.279797 -1.736220
1311877813.674609 0.371192 9.279797 -1.736220
1311877813.677697 0.119739 9.279797 -1.568585
1311877813.678809 0.119739 9.279797 -1.568585
1311877813.679931 0.119739 9.279797 -1.568585
1311877813.680960 0.119739 9.279797 -1.568585
1311877813.684592 0.419088 9.447432 -1.544637
1311877813.685735 0.419088 9.447432 -1.544637
1311877813.688847 0.227505 9.279797 -1.544637
1311877813.689837 0.227505 9.279797 -1.544637
1311877813.693083 0.407114 9.423484 -1.568585
1311877813.694480 0.407114 9.423484 -1.568585
1311877813.697705 0.502905 9.375588 -1.544637
1311877813.698821 0.502905 9.375588 -1.544637
1311877813.699947 0.502905 9.375588 -1.544637
1311877813.700957 0.502905 9.375588 -1.544637
1311877813.704601 0.227505 9.184006 -1.736220
1311877813.705747 0.227505 9.184006 -1.736220
1311877813.708831 0.502905 9.459406 -1.592533
1311877813.710013 0.502905 9.459406 -1.592533
1311877813.713472 0.323296 9.279797 -1.640429
1311877813.714591 0.323296 9.279797 -1.640429
1311877813.715586 0.323296 9.279797 -1.640429
1311877813.718847 0.227505 9.279797 -1.592533
1311877813.719950 0.227505 9.279797 -1.592533
1311877813.723464 0.502905 9.471380 -1.448846
1311877813.724468 0.502905 9.471380 -1.448846
1311877813.729796 0.227505 9.184006 -1.544637
1311877813.732095 0.323296 9.279797 -1.556611
1311877813.733463 0.323296 9.279797 -1.556611
1311877813.734749 0.323296 9.279797 -1.556611
1311877813.735724 0.323296 9.279797 -1.556611
1311877813.739004 0.407114 9.279797 -1.544637
1311877813.739980 0.407114 9.279797 -1.544637
1311877813.743578 0.227505 9.184006 -1.544637
1311877813.744556 0.227505 9.184006 -1.544637
1311877813.747815 0.407114 9.471380 -1.520689
1311877813.748840 0.407114 9.471380 -1.520689
1311877813.750462 0.407114 9.471380 -1.520689
1311877813.753707 0.323296 9.279797 -1.592533
1311877813.754554 0.323296 9.279797 -1.592533
1311877813.757854 0.227505 9.279797 -1.640429
1311877813.758822 0.227505 9.279797 -1.640429
1311877813.762453 0.598697 9.279797 -1.544637
1311877813.763801 0.598697 9.279797 -1.544637
1311877813.764704 0.598697 9.279797 -1.544637
1311877813.765842 0.598697 9.279797 -1.544637
1311877813.768993 0.227505 9.136110 -1.736220
1311877813.769970 0.227505 9.136110 -1.736220
1311877813.773589 0.407114 9.471380 -1.640429
1311877813.774578 0.407114 9.471380 -1.640429
1311877813.777825 0.502905 9.483354 -1.640429
1311877813.778928 0.502905 9.483354 -1.640429
1311877813.782465 0.227505 9.184006 -1.640429
1311877813.783581 0.227505 9.184006 -1.640429
1311877813.784740 0.227505 9.184006 -1.640429
1311877813.785717 0.227505 9.184006 -1.640429
1311877813.788940 0.598697 9.279797 -1.640429
1311877813.789951 0.598697 9.279797 -1.640429
1311877813.793605 0.323296 9.279797 -1.592533
1311877813.794563 0.323296 9.279797 -1.592533
1311877813.797831 0.395140 9.184006 -1.544637
1311877813.798754 0.395140 9.184006 -1.544637
1311877813.800152 0.395140 9.184006 -1.544637
1311877813.803460 0.502905 9.459406 -1.544637
1311877813.804677 0.502905 9.459406 -1.544637
1311877813.807870 0.323296 9.184006 -1.544637
1311877813.808821 0.323296 9.184006 -1.544637
1311877813.809957 0.323296 9.184006 -1.544637
1311877813.813448 0.502905 9.447432 -1.544637
1311877813.814598 0.502905 9.447432 -1.544637
1311877813.817695 0.407114 9.375588 -1.448846
1311877813.818678 0.407114 9.375588 -1.448846
1311877813.819942 0.407114 9.375588 -1.448846
1311877813.821059 0.407114 9.375588 -1.448846
1311877813.824599 0.323296 9.279797 -1.736220
1311877813.825740 0.323296 9.279797 -1.736220
1311877813.828927 0.502905 9.447432 -1.544637
1311877813.830095 0.502905 9.447432 -1.544637
1311877813.833607 0.227505 9.423484 -1.544637
1311877813.834701 0.227505 9.423484 -1.544637
1311877813.837838 0.227505 9.088214 -1.544637
1311877813.839099 0.227505 9.088214 -1.544637
1311877813.842450 0.598697 9.375588 -1.568585
1311877813.843609 0.598697 9.375588 -1.568585
1311877813.844589 0.598697 9.375588 -1.568585
1311877813.847816 0.227505 9.279797 -1.736220
1311877813.848832 0.227505 9.279797 -1.736220
1311877813.852319 0.395140 9.279797 -1.592533
1311877813.853683 0.395140 9.279797 -1.592533
1311877813.854553 0.395140 9.279797 -1.592533
1311877813.858154 0.502905 9.423484 -1.544637
1311877813.859015 0.502905 9.423484 -1.544637
1311877813.859945 0.502905 9.423484 -1.544637
1311877813.863701 0.023948 9.375588 -1.640429
1311877813.864607 0.023948 9.375588 -1.640429
1311877813.867867 0.455009 9.279797 -1.592533
1311877813.868848 0.455009 9.279797 -1.592533
1311877813.872082 0.407114 9.279797 -1.544637
1311877813.873102 0.407114 9.279797 -1.544637
1311877813.874706 0.407114 9.279797 -1.544637
1311877813.875697 0.407114 9.279797 -1.544637
1311877813.878940 0.119739 9.279797 -1.544637
1311877813.879928 0.119739 9.279797 -1.544637
1311877813.883437 0.598697 9.375588 -1.520689
1311877813.884458 0.598697 9.375588 -1.520689
1311877813.887813 0.227505 9.279797 -1.568585
1311877813.888676 0.227505 9.279797 -1.568585
1311877813.889955 0.227505 9.279797 -1.568585
1311877813.890954 0.227505 9.279797 -1.568585
1311877813.894573 0.455009 9.279797 -1.544637
1311877813.895562 0.455009 9.279797 -1.544637
1311877813.898830 0.395140 9.279797 -1.640429
1311877813.899952 0.395140 9.279797 -1.640429
1311877813.903587 0.023948 9.112162 -1.927803
1311877813.904501 0.023948 9.112162 -1.927803
1311877813.907841 0.407114 9.471380 -1.640429
1311877813.908867 0.407114 9.471380 -1.640429
1311877813.912480 0.407114 9.279797 -1.640429
1311877813.913568 0.407114 9.279797 -1.640429
1311877813.914443 0.407114 9.279797 -1.640429
1311877813.917816 0.119739 9.136110 -1.736220
1311877813.918798 0.119739 9.136110 -1.736220
1311877813.922442 0.598697 9.423484 -1.544637
1311877813.923444 0.598697 9.423484 -1.544637
1311877813.924690 0.598697 9.423484 -1.544637
1311877813.925694 0.598697 9.423484 -1.544637
1311877813.931047 0.071844 9.184006 -1.736220
1311877813.932087 0.227505 9.279797 -1.879907
1311877813.933454 0.227505 9.279797 -1.879907
1311877813.934761 0.227505 9.279797 -1.879907
1311877813.935822 0.227505 9.279797 -1.879907
1311877813.939083 0.323296 9.279797 -1.544637
1311877813.942590 0.023948 9.136110 -1.544637
1311877813.943689 0.023948 9.136110 -1.544637
1311877813.944581 0.023948 9.136110 -1.544637
1311877813.947820 0.419088 9.423484 -1.544637
1311877813.948802 0.419088 9.423484 -1.544637
1311877813.950466 0.419088 9.423484 -1.544637
1311877813.953569 0.371192 9.375588 -1.568585
1311877813.954556 0.371192 9.375588 -1.568585
1311877813.957841 0.323296 9.279797 -1.640429
1311877813.961120 0.323296 9.279797 -1.640429
1311877813.962575 0.502905 9.471380 -1.544637
1311877813.963563 0.502905 9.471380 -1.544637
1311877813.964720 0.502905 9.471380 -1.544637
1311877813.965842 0.502905 9.471380 -1.544637
1311877813.968984 0.011974 9.112162 -1.544637
1311877813.969980 0.011974 9.112162 -1.544637
1311877813.973589 0.407114 9.279797 -1.544637
1311877813.974561 0.407114 9.279797 -1.544637
1311877813.977814 0.419088 9.375588 -1.544637
1311877813.978696 0.419088 9.375588 -1.544637
1311877813.979958 0.419088 9.375588 -1.544637
1311877813.980951 0.419088 9.375588 -1.544637
1311877813.984599 0.119739 9.279797 -1.592533
1311877813.985578 0.119739 9.279797 -1.592533
1311877813.988820 0.502905 9.471380 -1.544637
1311877813.989803 0.502905 9.471380 -1.544637
1311877813.993453 0.323296 9.279797 -1.544637
1311877813.994567 0.323296 9.279797 -1.544637
1311877813.995566 0.323296 9.279797 -1.544637
1311877813.998956 0.323296 9.279797 -1.544637
1311877813.999830 0.323296 9.279797 -1.544637
1311877814.003450 0.598697 9.375588 -1.544637
1311877814.004511 0.598697 9.375588 -1.544637
1311877814.005602 0.598697 9.375588 -1.544637
1311877814.009068 0.023948 9.279797 -1.736220
1311877814.010013 0.023948 9.279797 -1.736220
1311877814.011079 0.023948 9.279797 -1.736220
1311877814.014589 0.502905 9.447432 -1.544637
1311877814.015563 0.502905 9.447432 -1.544637
1311877814.018812 0.227505 9.471380 -1.448846
1311877814.019810 0.227505 9.471380 -1.448846
1311877814.023448 0.023948 9.375588 -1.544637
1311877814.024457 0.023948 9.375588 -1.544637
1311877814.027732 0.407114 9.459406 -1.640429
1311877814.028692 0.407114 9.459406 -1.640429
1311877814.030085 0.407114 9.459406 -1.640429
1311877814.031079 0.407114 9.459406 -1.640429
1311877814.034619 0.227505 9.279797 -1.544637
1311877814.035570 0.227505 9.279797 -1.544637
1311877814.038947 0.323296 9.279797 -1.353054
1311877814.039935 0.323296 9.279797 -1.353054
1311877814.043453 0.431062 9.471380 -1.353054
1311877814.044564 0.431062 9.471380 -1.353054
1311877814.047837 0.323296 9.184006 -1.520689
1311877814.048828 0.323296 9.184006 -1.520689
1311877814.050078 0.323296 9.184006 -1.520689
1311877814.051090 0.323296 9.184006 -1.520689
1311877814.054569 0.502905 9.279797 -1.520689
1311877814.055556 0.502905 9.279797 -1.520689
1311877814.058825 0.323296 9.279797 -1.448846
1311877814.059820 0.323296 9.279797 -1.448846
1311877814.063689 0.227505 9.136110 -1.544637
1311877814.064623 0.227505 9.136110 -1.544637
1311877814.065710 0.227505 9.136110 -1.544637
1311877814.068974 0.706462 9.447432 -1.353054
1311877814.069824 0.706462 9.447432 -1.353054
1311877814.073580 0.371192 9.184006 -1.520689
1311877814.074572 0.371192 9.184006 -1.520689
1311877814.077695 0.371192 9.184006 -1.544637
1311877814.078676 0.371192 9.184006 -1.544637
1311877814.080072 0.371192 9.184006 -1.544637
1311877814.080954 0.371192 9.184006 -1.544637
1311877814.084595 0.598697 9.471380 -1.448846
1311877814.085706 0.598697 9.471380 -1.448846
1311877814.088818 0.071844 9.184006 -1.353054
1311877814.089802 0.071844 9.184006 -1.353054
1311877814.093086 0.407114 9.184006 -1.353054
1311877814.094430 0.407114 9.184006 -1.353054
1311877814.097896 0.598697 9.375588 -1.161471
1311877814.099125 0.598697 9.375588 -1.161471
1311877814.100569 0.598697 9.375588 -1.161471
1311877814.103706 0.227505 9.136110 -1.640429
1311877814.104701 0.227505 9.136110 -1.640429
1311877814.107878 0.598697 9.471380 -1.544637
1311877814.109008 0.598697 9.471380 -1.544637
1311877814.112494 0.395140 9.279797 -1.592533
1311877814.113577 0.395140 9.279797 -1.592533
1311877814.114563 0.395140 9.279797 -1.592533
1311877814.117829 0.227505 9.184006 -1.927803
1311877814.118926 0.227505 9.184006 -1.927803
1311877814.122565 0.598697 9.279797 -1.640429
1311877814.123597 0.598697 9.279797 -1.640429
1311877814.124837 0.598697 9.279797 -1.640429
1311877814.125857 0.598697 9.279797 -1.640429
1311877814.128948 0.227505 9.112162 -1.927803
1311877814.130277 0.227505 9.112162 -1.927803
1311877814.133703 0.407114 9.447432 -1.640429
1311877814.134723 0.407114 9.447432 -1.640429
1311877814.137951 0.419088 9.375588 -1.592533
1311877814.138852 0.419088 9.375588 -1.592533
1311877814.142480 0.323296 9.279797 -1.736220
1311877814.143566 0.323296 9.279797 -1.736220
1311877814.144468 0.323296 9.279797 -1.736220
1311877814.147814 0.407114 9.662963 -1.879907
1311877814.148794 0.407114 9.662963 -1.879907
1311877814.152445 -0.059870 9.088214 -2.119386
1311877814.153551 -0.059870 9.088214 -2.119386
1311877814.154821 -0.059870 9.088214 -2.119386
1311877814.155818 -0.059870 9.088214 -2.119386
1311877814.159073 0.407114 9.459406 -1.496741
1311877814.160063 0.407114 9.459406 -1.496741
1311877814.163703 0.227505 9.375588 -0.754358
1311877814.164726 0.227505 9.375588 -0.754358
1311877814.168079 -0.347244 9.279797 -0.969888
1311877814.169077 -0.347244 9.279797 -0.969888
1311877814.170080 -0.347244 9.279797 -0.969888
1311877814.173692 0.802253 9.279797 -1.556611
1311877814.174698 0.802253 9.279797 -1.556611
1311877814.177832 0.431062 9.279797 -1.353054
1311877814.178870 0.431062 9.279797 -1.353054
1311877814.182618 -0.059870 9.100188 -0.778306
1311877814.183553 -0.059870 9.100188 -0.778306
1311877814.184833 -0.059870 9.100188 -0.778306
1311877814.185843 -0.059870 9.100188 -0.778306
1311877814.188958 0.598697 9.088214 -1.065680
1311877814.189942 0.598697 9.088214 -1.065680
1311877814.193565 0.598697 9.471380 -1.544637
1311877814.194682 0.598697 9.471380 -1.544637
1311877814.197844 0.323296 9.279797 -1.832012
1311877814.198939 0.323296 9.279797 -1.832012
1311877814.202958 0.598697 9.567171 -1.544637
1311877814.203957 0.598697 9.567171 -1.544637
1311877814.204950 0.598697 9.567171 -1.544637
1311877814.208618 0.323296 9.088214 -1.975699
1311877814.209649 0.323296 9.088214 -1.975699
1311877814.212828 0.407114 9.471380 -1.927803
1311877814.213816 0.407114 9.471380 -1.927803
1311877814.215436 0.407114 9.471380 -1.927803
1311877814.218592 0.598697 9.279797 -2.119386
1311877814.219682 0.598697 9.279797 -2.119386
1311877814.222806 0.023948 9.088214 -1.927803
1311877814.223796 0.023948 9.088214 -1.927803
1311877814.227446 0.407114 9.088214 -1.927803
1311877814.228445 0.407114 9.088214 -1.927803
1311877814.229885 0.407114 9.088214 -1.927803
1311877814.232857 0.598697 9.279797 -1.927803
1311877814.233829 0.598697 9.279797 -1.927803
1311877814.237601 0.119739 9.088214 -1.592533
1311877814.239450 0.119739 9.088214 -1.592533
1311877814.240440 0.119739 9.088214 -1.592533
1311877814.243577 0.431062 9.423484 -1.353054
1311877814.244690 0.431062 9.423484 -1.353054
1311877814.247832 0.227505 9.136110 -1.544637
1311877814.248795 0.227505 9.136110 -1.544637
1311877814.252439 0.407114 9.375588 -1.544637
1311877814.253548 0.407114 9.375588 -1.544637
1311877814.254544 0.407114 9.375588 -1.544637
1311877814.257982 0.407114 9.567171 -1.161471
1311877814.258941 0.407114 9.567171 -1.161471
1311877814.262605 -0.167635 9.279797 -1.448846
1311877814.263714 -0.167635 9.279797 -1.448846
1311877814.264874 -0.167635 9.279797 -1.448846
1311877814.265865 -0.167635 9.279797 -1.448846
1311877814.269058 0.598697 9.471380 -1.736220
1311877814.272086 0.227505 9.471380 -1.832012
1311877814.273436 0.227505 9.471380 -1.832012
1311877814.274708 0.227505 9.471380 -1.832012
1311877814.275697 0.227505 9.471380 -1.832012
1311877814.278936 0.023948 9.112162 -1.640429
1311877814.280071 0.023948 9.112162 -1.640429
1311877814.283429 0.455009 9.423484 -1.544637
1311877814.284567 0.455009 9.423484 -1.544637
1311877814.287836 0.227505 9.136110 -1.879907
1311877814.288823 0.227505 9.136110 -1.879907
1311877814.292452 0.227505 9.184006 -1.640429
1311877814.293569 0.227505 9.184006 -1.640429
1311877814.294713 0.227505 9.184006 -1.640429
1311877814.295809 0.227505 9.184006 -1.640429
1311877814.298949 0.395140 9.279797 -1.544637
1311877814.299935 0.395140 9.279797 -1.544637
1311877814.303733 -0.011974 9.375588 -1.544637
1311877814.304577 -0.011974 9.375588 -1.544637
1311877814.305726 -0.011974 9.375588 -1.544637
1311877814.308844 0.431062 9.471380 -1.544637
1311877814.309982 0.431062 9.471380 -1.544637
1311877814.313638 0.227505 9.471380 -1.532663
1311877814.314564 0.227505 9.471380 -1.532663
1311877814.317687 -0.059870 9.471380 -1.520689
1311877814.318692 -0.059870 9.471380 -1.520689
1311877814.320129 -0.059870 9.471380 -1.520689
1311877814.321074 -0.059870 9.471380 -1.520689
1311877814.324565 0.407114 9.471380 -1.544637
1311877814.325628 0.407114 9.471380 -1.544637
1311877814.328891 0.227505 9.279797 -1.879907
1311877814.330015 0.227505 9.279797 -1.879907
1311877814.333589 0.407114 9.375588 -1.353054
1311877814.334565 0.407114 9.375588 -1.353054
1311877814.337813 0.502905 9.375588 -1.544637
1311877814.338812 0.502905 9.375588 -1.544637
1311877814.340082 0.502905 9.375588 -1.544637
1311877814.341065 0.502905 9.375588 -1.544637
1311877814.344737 0.323296 9.112162 -1.927803
1311877814.345797 0.323296 9.112162 -1.927803
1311877814.348806 0.778306 9.471380 -1.927803
1311877814.349917 0.778306 9.471380 -1.927803
1311877814.353563 0.407114 9.279797 -1.544637
1311877814.354577 0.407114 9.279797 -1.544637
1311877814.357914 0.071844 9.279797 -1.496741
1311877814.358806 0.071844 9.279797 -1.496741
1311877814.360318 0.071844 9.279797 -1.496741
1311877814.361439 0.071844 9.279797 -1.496741
1311877814.364714 0.598697 9.423484 -1.640429
1311877814.365817 0.598697 9.423484 -1.640429
1311877814.368950 0.227505 9.279797 -1.640429
1311877814.370133 0.227505 9.279797 -1.640429
1311877814.373559 0.419088 9.279797 -1.448846
1311877814.374606 0.419088 9.279797 -1.448846
1311877814.377810 0.598697 9.459406 -1.353054
1311877814.378849 0.598697 9.459406 -1.353054
1311877814.380077 0.598697 9.459406 -1.353054
1311877814.381046 0.598697 9.459406 -1.353054
1311877814.384706 0.323296 9.088214 -1.736220
1311877814.385711 0.323296 9.088214 -1.736220
1311877814.388951 0.790279 9.375588 -1.544637
1311877814.389946 0.790279 9.375588 -1.544637
1311877814.393580 0.323296 9.279797 -1.353054
1311877814.394569 0.323296 9.279797 -1.353054
1311877814.397812 0.227505 9.088214 -1.161471
1311877814.398829 0.227505 9.088214 -1.161471
1311877814.402580 0.706462 9.471380 -1.544637
1311877814.403557 0.706462 9.471380 -1.544637
1311877814.404699 0.706462 9.471380 -1.544637
1311877814.405846 0.706462 9.471380 -1.544637
1311877814.408951 0.323296 9.088214 -1.736220
1311877814.409990 0.323296 9.088214 -1.736220
1311877814.413567 0.407114 9.423484 -1.544637
1311877814.414571 0.407114 9.423484 -1.544637
1311877814.417807 0.407114 9.279797 -1.353054
1311877814.418855 0.407114 9.279797 -1.353054
1311877814.422454 0.023948 9.279797 -1.544637
1311877814.423541 0.023948 9.279797 -1.544637
1311877814.424671 0.023948 9.279797 -1.544637
1311877814.425811 0.023948 9.279797 -1.544637
1311877814.428944 0.598697 9.375588 -1.640429
1311877814.430073 0.598697 9.375588 -1.640429
1311877814.433602 0.323296 9.279797 -1.544637
1311877814.434645 0.323296 9.279797 -1.544637
1311877814.437883 0.227505 9.184006 -1.544637
1311877814.438814 0.227505 9.184006 -1.544637
1311877814.440109 0.227505 9.184006 -1.544637
1311877814.441568 0.227505 9.184006 -1.544637
1311877814.444712 0.706462 9.423484 -1.448846
1311877814.445671 0.706462 9.423484 -1.448846
1311877814.448802 0.227505 9.136110 -1.544637
1311877814.449923 0.227505 9.136110 -1.544637
1311877814.453556 0.455009 9.279797 -1.448846
1311877814.454543 0.455009 9.279797 -1.448846
1311877814.457811 0.407114 9.423484 -1.353054
1311877814.458810 0.407114 9.423484 -1.353054
1311877814.460549 0.407114 9.423484 -1.353054
1311877814.463646 0.071844 9.279797 -1.736220
1311877814.464555 0.071844 9.279797 -1.736220
1311877814.467842 0.407114 9.471380 -1.532663
1311877814.468973 0.407114 9.471380 -1.532663
1311877814.472327 0.323296 9.447432 -1.496741
1311877814.473444 0.323296 9.447432 -1.496741
1311877814.474860 0.323296 9.447432 -1.496741
1311877814.477864 0.227505 9.279797 -1.736220
1311877814.478804 0.227505 9.279797 -1.736220
1311877814.482581 0.407114 9.471380 -1.544637
1311877814.483418 0.407114 9.471380 -1.544637
1311877814.484692 0.407114 9.471380 -1.544637
1311877814.485816 0.407114 9.471380 -1.544637
1311877814.488934 0.023948 9.279797 -1.556611
1311877814.489918 0.023948 9.279797 -1.556611
1311877814.493458 0.371192 9.279797 -1.544637
1311877814.494544 0.371192 9.279797 -1.544637
1311877814.497851 0.407114 9.279797 -1.520689
1311877814.498703 0.407114 9.279797 -1.520689
1311877814.500087 0.407114 9.279797 -1.520689
1311877814.501131 0.407114 9.279797 -1.520689
1311877814.504578 0.227505 9.136110 -1.448846
1311877814.505690 0.227505 9.136110 -1.448846
1311877814.508856 0.754358 9.519276 -1.257263
1311877814.510508 0.754358 9.519276 -1.257263
1311877814.513555 0.023948 9.279797 -1.496741
1311877814.514554 0.023948 9.279797 -1.496741
1311877814.517813 0.119739 9.279797 -1.736220
1311877814.518819 0.119739 9.279797 -1.736220
1311877814.519930 0.119739 9.279797 -1.736220
1311877814.521046 0.119739 9.279797 -1.736220
1311877814.524595 0.598697 9.375588 -1.544637
1311877814.525679 0.598697 9.375588 -1.544637
1311877814.528827 0.023948 9.375588 -1.496741
1311877814.529929 0.023948 9.375588 -1.496741
1311877814.533561 0.419088 9.279797 -1.556611
1311877814.534579 0.419088 9.279797 -1.556611
1311877814.537860 0.502905 9.447432 -1.640429
1311877814.538819 0.502905 9.447432 -1.640429
1311877814.539953 0.502905 9.447432 -1.640429
1311877814.541065 0.502905 9.447432 -1.640429
1311877814.544579 0.227505 9.088214 -1.736220
1311877814.545688 0.227505 9.088214 -1.736220
1311877814.548932 0.407114 9.471380 -1.448846
1311877814.550076 0.407114 9.471380 -1.448846
1311877814.553580 0.227505 9.136110 -1.736220
1311877814.554547 0.227505 9.136110 -1.736220
1311877814.559863 0.323296 9.279797 -2.119386
1311877814.562567 0.502905 9.471380 -1.927803
1311877814.563446 0.502905 9.471380 -1.927803
1311877814.564829 0.502905 9.471380 -1.927803
1311877814.567825 0.023948 9.423484 -1.544637
1311877814.568858 0.023948 9.423484 -1.544637
1311877814.572456 0.035922 9.088214 -1.496741
1311877814.573443 0.035922 9.088214 -1.496741
1311877814.574850 0.035922 9.088214 -1.496741
1311877814.575797 0.035922 9.088214 -1.496741
1311877814.578929 0.407114 9.375588 -1.640429
1311877814.580059 0.407114 9.375588 -1.640429
1311877814.583579 0.119739 9.279797 -1.496741
1311877814.584556 0.119739 9.279797 -1.496741
1311877814.587831 0.502905 9.279797 -1.185419
1311877814.588796 0.502905 9.279797 -1.185419
1311877814.592491 0.407114 9.279797 -1.544637
1311877814.593551 0.407114 9.279797 -1.544637
1311877814.594801 0.407114 9.279797 -1.544637
1311877814.595804 0.407114 9.279797 -1.544637
1311877814.599118 0.371192 9.279797 -1.832012
1311877814.603889 0.407114 9.471380 -1.448846
1311877814.604702 0.407114 9.471380 -1.448846
1311877814.605858 0.407114 9.471380 -1.448846
1311877814.609006 0.023948 9.100188 -1.592533
1311877814.610133 0.023948 9.100188 -1.592533
1311877814.613552 0.431062 9.375588 -1.640429
1311877814.614535 0.431062 9.375588 -1.640429
1311877814.617817 0.598697 9.423484 -1.915829
1311877814.618911 0.598697 9.423484 -1.915829
1311877814.622430 0.023948 9.184006 -1.832012
1311877814.623416 0.023948 9.184006 -1.832012
1311877814.624670 0.023948 9.184006 -1.832012
1311877814.625798 0.023948 9.184006 -1.832012
1311877814.629030 0.455009 9.471380 -1.448846
1311877814.629937 0.455009 9.471380 -1.448846
1311877814.633582 0.323296 9.184006 -1.832012
1311877814.634732 0.323296 9.184006 -1.832012
1311877814.637979 0.119739 9.112162 -1.927803
1311877814.638800 0.119739 9.112162 -1.927803
1311877814.642571 0.598697 9.447432 -1.592533
1311877814.643591 0.598697 9.447432 -1.592533
1311877814.644789 0.598697 9.447432 -1.592533
1311877814.645795 0.598697 9.447432 -1.592533
1311877814.648798 -0.167635 9.279797 -1.544637
1311877814.649913 -0.167635 9.279797 -1.544637
1311877814.653427 0.323296 9.423484 -1.736220
1311877814.654537 0.323296 9.423484 -1.736220
1311877814.657691 0.598697 9.375588 -1.736220
1311877814.659812 0.598697 9.375588 -1.736220
1311877814.662484 0.047896 9.279797 -1.592533
1311877814.663444 0.047896 9.279797 -1.592533
1311877814.664587 0.047896 9.279797 -1.592533
1311877814.667812 0.323296 9.471380 -1.448846
1311877814.668853 0.323296 9.471380 -1.448846
1311877814.672590 0.407114 9.375588 -1.879907
1311877814.673545 0.407114 9.375588 -1.879907
1311877814.674686 0.407114 9.375588 -1.879907
1311877814.675787 0.407114 9.375588 -1.879907
1311877814.678919 0.407114 9.279797 -1.736220
1311877814.679943 0.407114 9.279797 -1.736220
1311877814.683693 0.598697 9.375588 -1.209367
1311877814.684544 0.598697 9.375588 -1.209367
1311877814.687839 0.395140 9.136110 -1.257263
1311877814.688805 0.395140 9.136110 -1.257263
1311877814.692470 0.455009 9.100188 -1.544637
1311877814.693447 0.455009 9.100188 -1.544637
1311877814.694697 0.455009 9.100188 -1.544637
1311877814.695671 0.455009 9.100188 -1.544637
1311877814.698964 0.502905 9.279797 -1.736220
1311877814.699962 0.502905 9.279797 -1.736220
1311877814.703570 0.227505 9.088214 -1.353054
1311877814.704561 0.227505 9.088214 -1.353054
1311877814.707967 0.419088 9.279797 -1.209367
1311877814.709086 0.419088 9.279797 -1.209367
1311877814.712606 0.431062 9.375588 -1.879907
1311877814.713562 0.431062 9.375588 -1.879907
1311877814.714961 0.431062 9.375588 -1.879907
1311877814.715956 0.431062 9.375588 -1.879907
1311877814.718959 0.419088 9.279797 -1.832012
1311877814.721145 0.419088 9.279797 -1.832012
1311877814.723544 0.419088 9.471380 -1.353054
1311877814.724563 0.419088 9.471380 -1.353054
1311877814.729680 0.023948 9.136110 -1.544637
1311877814.732455 0.323296 9.136110 -1.736220
1311877814.733606 0.323296 9.136110 -1.736220
1311877814.734753 0.323296 9.136110 -1.736220
1311877814.737958 0.598697 9.471380 -1.736220
1311877814.738848 0.598697 9.471380 -1.736220
1311877814.742604 -0.011974 9.184006 -1.736220
1311877814.743546 -0.011974 9.184006 -1.736220
1311877814.744671 -0.011974 9.184006 -1.736220
1311877814.747796 0.431062 9.423484 -1.544637
1311877814.748793 0.431062 9.423484 -1.544637
1311877814.752456 0.407114 9.375588 -1.736220
1311877814.753587 0.407114 9.375588 -1.736220
1311877814.754749 0.407114 9.375588 -1.736220
1311877814.757823 0.071844 9.279797 -1.736220
1311877814.758815 0.071844 9.279797 -1.736220
1311877814.762432 0.371192 9.471380 -1.161471
1311877814.763674 0.371192 9.471380 -1.161471
1311877814.764803 0.371192 9.471380 -1.161471
1311877814.765803 0.371192 9.471380 -1.161471
1311877814.768945 0.023948 9.279797 -1.592533
1311877814.770209 0.023948 9.279797 -1.592533
1311877814.773623 0.407114 9.471380 -1.353054
1311877814.774724 0.407114 9.471380 -1.353054
1311877814.778341 0.407114 9.495328 -1.353054
1311877814.779435 0.407114 9.495328 -1.353054
1311877814.780499 0.407114 9.495328 -1.353054
1311877814.781554 0.407114 9.495328 -1.353054
1311877814.784813 0.011974 9.112162 -1.448846
1311877814.785856 0.011974 9.112162 -1.448846
1311877814.788801 0.502905 9.375588 -1.496741
1311877814.789915 0.502905 9.375588 -1.496741
1311877814.793457 0.407114 9.279797 -1.544637
1311877814.794426 0.407114 9.279797 -1.544637
1311877814.797848 0.227505 9.088214 -1.448846
1311877814.798819 0.227505 9.088214 -1.448846
1311877814.800108 0.227505 9.088214 -1.448846
1311877814.803472 0.502905 9.375588 -1.353054
1311877814.804631 0.502905 9.375588 -1.353054
1311877814.807817 0.323296 9.184006 -1.640429
1311877814.808873 0.323296 9.184006 -1.640429
1311877814.810508 0.323296 9.184006 -1.640429
1311877814.813571 0.407114 9.279797 -1.640429
1311877814.814558 0.407114 9.279797 -1.640429
1311877814.817794 0.455009 9.447432 -1.496741
1311877814.818809 0.455009 9.447432 -1.496741
1311877814.822422 0.047896 9.112162 -1.544637
1311877814.823426 0.047896 9.112162 -1.544637
1311877814.824663 0.047896 9.112162 -1.544637
1311877814.825722 0.047896 9.112162 -1.544637
1311877814.828939 0.598697 9.279797 -1.736220
1311877814.830056 0.598697 9.279797 -1.736220
1311877814.833576 0.407114 9.423484 -1.448846
1311877814.834586 0.407114 9.423484 -1.448846
1311877814.837826 0.119739 9.279797 -1.496741
1311877814.838824 0.119739 9.279797 -1.496741
1311877814.840542 0.119739 9.279797 -1.496741
1311877814.843562 0.407114 9.471380 -1.544637
1311877814.844534 0.407114 9.471380 -1.544637
1311877814.847927 0.227505 9.279797 -1.975699
1311877814.848919 0.227505 9.279797 -1.975699
1311877814.852460 0.407114 9.279797 -1.832012
1311877814.853570 0.407114 9.279797 -1.832012
1311877814.854823 0.407114 9.279797 -1.832012
1311877814.855791 0.407114 9.279797 -1.832012
1311877814.858934 0.227505 9.447432 -1.496741
1311877814.859953 0.227505 9.447432 -1.496741
1311877814.863709 0.011974 9.279797 -1.832012
1311877814.864705 0.011974 9.279797 -1.832012
1311877814.867817 0.407114 9.375588 -1.927803
1311877814.868830 0.407114 9.375588 -1.927803
1311877814.872560 0.407114 9.375588 -1.640429
1311877814.873575 0.407114 9.375588 -1.640429
1311877814.874720 0.407114 9.375588 -1.640429
1311877814.875843 0.407114 9.375588 -1.640429
1311877814.878987 0.071844 9.136110 -1.544637
1311877814.879940 0.071844 9.136110 -1.544637
1311877814.883425 0.598697 9.459406 -1.496741
1311877814.884411 0.598697 9.459406 -1.496741
1311877814.887813 0.407114 9.088214 -1.640429
1311877814.888783 0.407114 9.088214 -1.640429
1311877814.892211 0.395140 9.279797 -1.544637
1311877814.893420 0.395140 9.279797 -1.544637
1311877814.894673 0.395140 9.279797 -1.544637
1311877814.895674 0.395140 9.279797 -1.544637
1311877814.899104 0.502905 9.184006 -1.353054
1311877814.902598 0.227505 9.088214 -1.640429
1311877814.903497 0.227505 9.088214 -1.640429
1311877814.904807 0.227505 9.088214 -1.640429
1311877814.905842 0.227505 9.088214 -1.640429
1311877814.908956 0.706462 9.423484 -1.640429
1311877814.909943 0.706462 9.423484 -1.640429
1311877814.913428 0.407114 9.375588 -1.544637
1311877814.914561 0.407114 9.375588 -1.544637
1311877814.917817 0.227505 9.279797 -1.640429
1311877814.918820 0.227505 9.279797 -1.640429
1311877814.922427 0.598697 9.471380 -1.640429
1311877814.923414 0.598697 9.471380 -1.640429
1311877814.924696 0.598697 9.471380 -1.640429
1311877814.925696 0.598697 9.471380 -1.640429
1311877814.928983 0.071844 9.375588 -2.215177
1311877814.930057 0.071844 9.375588 -2.215177
1311877814.933811 0.407114 9.459406 -1.640429
1311877814.934710 0.407114 9.459406 -1.640429
1311877814.937966 0.407114 9.471380 -1.544637
1311877814.939084 0.407114 9.471380 -1.544637
1311877814.942436 0.023948 9.279797 -1.927803
1311877814.943542 0.023948 9.279797 -1.927803
1311877814.944666 0.023948 9.279797 -1.927803
1311877814.945907 0.023948 9.279797 -1.927803
1311877814.948926 0.407114 9.471380 -1.736220
1311877814.950036 0.407114 9.471380 -1.736220
1311877814.953567 0.227505 9.279797 -1.532663
1311877814.954557 0.227505 9.279797 -1.532663
1311877814.957794 0.023948 9.136110 -1.544637
1311877814.958811 0.023948 9.136110 -1.544637
1311877814.960308 0.023948 9.136110 -1.544637
1311877814.961425 0.023948 9.136110 -1.544637
1311877814.964689 0.371192 9.471380 -1.496741
1311877814.965693 0.371192 9.471380 -1.496741
1311877814.969722 0.035922 9.279797 -1.448846
1311877814.972451 0.023948 9.471380 -1.353054
1311877814.973723 0.023948 9.471380 -1.353054
1311877814.974806 0.023948 9.471380 -1.353054
1311877814.975821 0.023948 9.471380 -1.353054
1311877814.979033 0.323296 9.567171 -1.496741
1311877814.980047 0.323296 9.567171 -1.496741
1311877814.983708 0.227505 9.136110 -1.832012
1311877814.984693 0.227505 9.136110 -1.832012
1311877814.985817 0.227505 9.136110 -1.832012
1311877814.988929 0.754358 9.423484 -1.496741
1311877814.989909 0.754358 9.423484 -1.496741
1311877814.993546 0.407114 9.184006 -1.257263
1311877814.994545 0.407114 9.184006 -1.257263
1311877814.997810 0.227505 9.088214 -1.544637
1311877814.998985 0.227505 9.088214 -1.544637
1311877815.002574 0.754358 9.279797 -1.832012
1311877815.003552 0.754358 9.279797 -1.832012
1311877815.004852 0.754358 9.279797 -1.832012
1311877815.005814 0.754358 9.279797 -1.832012
1311877815.008959 0.407114 9.088214 -1.592533
1311877815.010093 0.407114 9.088214 -1.592533
1311877815.013575 0.407114 9.279797 -1.353054
1311877815.014565 0.407114 9.279797 -1.353054
1311877815.017820 0.419088 9.471380 -1.353054
1311877815.018806 0.419088 9.471380 -1.353054
1311877815.020447 0.419088 9.471380 -1.353054
1311877815.023686 0.227505 9.136110 -1.939777
1311877815.024687 0.227505 9.136110 -1.939777
1311877815.027804 0.502905 9.459406 -1.736220
1311877815.028862 0.502905 9.459406 -1.736220
1311877815.033308 0.407114 9.567171 -1.137524
1311877815.034447 0.407114 9.567171 -1.137524
1311877815.037658 0.023948 9.279797 -1.353054
1311877815.039533 0.023948 9.279797 -1.353054
1311877815.042451 0.706462 9.471380 -1.832012
1311877815.043740 0.706462 9.471380 -1.832012
1311877815.044830 0.706462 9.471380 -1.832012
1311877815.045796 0.706462 9.471380 -1.832012
1311877815.048923 0.371192 9.375588 -1.736220
1311877815.050032 0.371192 9.375588 -1.736220
1311877815.053554 0.071844 9.279797 -1.448846
1311877815.054609 0.071844 9.279797 -1.448846
1311877815.057829 0.407114 9.279797 -1.544637
1311877815.058804 0.407114 9.279797 -1.544637
1311877815.060796 0.407114 9.279797 -1.544637
1311877815.063676 0.323296 9.088214 -2.215177
1311877815.064674 0.323296 9.088214 -2.215177
1311877815.067813 0.502905 9.471380 -1.736220
1311877815.068961 0.502905 9.471380 -1.736220
1311877815.072587 0.323296 9.471380 -1.353054
1311877815.073553 0.323296 9.471380 -1.353054
1311877815.074816 0.323296 9.471380 -1.353054
1311877815.075814 0.323296 9.471380 -1.353054
1311877815.079064 0.071844 9.112162 -1.927803
1311877815.080058 0.071844 9.112162 -1.927803
1311877815.083694 0.502905 9.519276 -1.927803
1311877815.084812 0.502905 9.519276 -1.927803
1311877815.088199 0.119739 9.471380 -1.353054
1311877815.089414 0.119739 9.471380 -1.353054
1311877815.092705 0.011974 9.184006 -1.257263
1311877815.093630 0.011974 9.184006 -1.257263
1311877815.094807 0.011974 9.184006 -1.257263
1311877815.095812 0.011974 9.184006 -1.257263
1311877815.099110 0.407114 9.471380 -1.592533
1311877815.103895 0.227505 9.279797 -1.736220
1311877815.104813 0.227505 9.279797 -1.736220
1311877815.107812 0.407114 9.375588 -1.161471
1311877815.108921 0.407114 9.375588 -1.161471
1311877815.112581 0.227505 9.423484 -1.113576
1311877815.113431 0.227505 9.423484 -1.113576
1311877815.114842 0.227505 9.423484 -1.113576
1311877815.115786 0.227505 9.423484 -1.113576
1311877815.119432 0.323296 9.088214 -2.023594
1311877815.122533 0.502905 9.471380 -1.927803
1311877815.123569 0.502905 9.471380 -1.927803
1311877815.124786 0.502905 9.471380 -1.927803
1311877815.125932 0.502905 9.471380 -1.927803
1311877815.128926 0.023948 9.279797 -1.161471
1311877815.130110 0.023948 9.279797 -1.161471
1311877815.133755 0.035922 9.112162 -1.544637
1311877815.134839 0.035922 9.112162 -1.544637
1311877815.137834 0.802253 9.423484 -1.975699
1311877815.138945 0.802253 9.423484 -1.975699
1311877815.142576 0.407114 9.136110 -1.975699
1311877815.143430 0.407114 9.136110 -1.975699
1311877815.144805 0.407114 9.136110 -1.975699
1311877815.145784 0.407114 9.136110 -1.975699
1311877815.149034 0.407114 9.184006 -0.969888
1311877815.150413 0.407114 9.184006 -0.969888
1311877815.153717 0.407114 9.375588 -1.496741
1311877815.154805 0.407114 9.375588 -1.496741
1311877815.157959 0.119739 9.088214 -2.215177
1311877815.158934 0.119739 9.088214 -2.215177
1311877815.162557 0.598697 9.375588 -1.927803
1311877815.164013 0.598697 9.375588 -1.927803
1311877815.164788 0.598697 9.375588 -1.927803
1311877815.165919 0.598697 9.375588 -1.927803
1311877815.169681 0.023948 9.184006 -1.161471
1311877815.170696 0.023948 9.184006 -1.161471
1311877815.174138 0.227505 9.184006 -1.568585
1311877815.177565 0.598697 9.471380 -1.927803
1311877815.178562 0.598697 9.471380 -1.927803
1311877815.179847 0.598697 9.471380 -1.927803
1311877815.180839 0.598697 9.471380 -1.927803
1311877815.183959 0.071844 9.459406 -1.592533
1311877815.185047 0.071844 9.459406 -1.592533
1311877815.188570 0.227505 9.447432 -1.161471
1311877815.189660 0.227505 9.447432 -1.161471
1311877815.192801 0.323296 9.471380 -1.544637
1311877815.193910 0.323296 9.471380 -1.544637
1311877815.197672 0.227505 9.136110 -2.023594
1311877815.198712 0.227505 9.136110 -2.023594
1311877815.199827 0.227505 9.136110 -2.023594
1311877815.200956 0.227505 9.136110 -2.023594
1311877815.204072 0.598697 9.447432 -1.544637
1311877815.204961 0.598697 9.447432 -1.544637
1311877815.208565 0.119739 9.088214 -1.161471
1311877815.209684 0.119739 9.088214 -1.161471
1311877815.212826 0.119739 9.040318 -1.496741
1311877815.213902 0.119739 9.040318 -1.496741
1311877815.217422 0.790279 9.375588 -1.736220
1311877815.218553 0.790279 9.375588 -1.736220
1311877815.219683 0.790279 9.375588 -1.736220
1311877815.220778 0.790279 9.375588 -1.736220
1311877815.223789 0.227505 9.184006 -1.544637
1311877815.224913 0.227505 9.184006 -1.544637
1311877815.228442 0.407114 9.279797 -1.257263
1311877815.229540 0.407114 9.279797 -1.257263
1311877815.232852 0.407114 9.279797 -1.544637
1311877815.233977 0.407114 9.279797 -1.544637
1311877815.237780 0.023948 9.279797 -1.832012
1311877815.238679 0.023948 9.279797 -1.832012
1311877815.239940 0.023948 9.279797 -1.832012
1311877815.242845 0.598697 9.471380 -1.496741
1311877815.243927 0.598697 9.471380 -1.496741
1311877815.247419 0.227505 9.184006 -1.257263
1311877815.248528 0.227505 9.184006 -1.257263
1311877815.249800 0.227505 9.184006 -1.257263
1311877815.250785 0.227505 9.184006 -1.257263
1311877815.254055 0.407114 9.279797 -1.927803
1311877815.255052 0.407114 9.279797 -1.927803
1311877815.258543 0.706462 9.471380 -1.879907
1311877815.259677 0.706462 9.471380 -1.879907
1311877815.262793 0.227505 9.136110 -1.640429
1311877815.263908 0.227505 9.136110 -1.640429
1311877815.267430 0.227505 9.279797 -1.544637
1311877815.268432 0.227505 9.279797 -1.544637
1311877815.269698 0.227505 9.279797 -1.544637
1311877815.270813 0.227505 9.279797 -1.544637
1311877815.274082 0.227505 9.279797 -2.023594
1311877815.277427 0.023948 9.184006 -2.023594
1311877815.278429 0.023948 9.184006 -2.023594
1311877815.279852 0.023948 9.184006 -2.023594
1311877815.280887 0.023948 9.184006 -2.023594
1311877815.284119 0.407114 9.519276 -1.161471
1311877815.285425 0.407114 9.519276 -1.161471
1311877815.288673 0.023948 9.471380 -1.353054
1311877815.289661 0.023948 9.471380 -1.353054
1311877815.292798 0.119739 9.279797 -1.544637
1311877815.293918 0.119739 9.279797 -1.544637
1311877815.297551 0.455009 9.471380 -1.257263
1311877815.298619 0.455009 9.471380 -1.257263
1311877815.299798 0.455009 9.471380 -1.257263
1311877815.301865 0.455009 9.471380 -1.257263
1311877815.304793 -0.011974 9.088214 -1.161471
1311877815.307417 0.227505 9.279797 -0.969888
1311877815.308539 0.227505 9.279797 -0.969888
1311877815.309787 0.227505 9.279797 -0.969888
1311877815.310793 0.227505 9.279797 -0.969888
1311877815.314070 0.407114 9.184006 -1.544637
1311877815.315056 0.407114 9.184006 -1.544637
1311877815.318563 0.071844 9.112162 -1.496741
1311877815.319540 0.071844 9.112162 -1.496741
1311877815.322795 0.455009 9.279797 -1.161471
1311877815.323931 0.455009 9.279797 -1.161471
1311877815.327421 0.323296 9.136110 -1.353054
1311877815.328543 0.323296 9.136110 -1.353054
1311877815.329835 0.323296 9.136110 -1.353054
1311877815.330801 0.323296 9.136110 -1.353054
1311877815.333954 0.407114 9.279797 -1.592533
1311877815.334966 0.407114 9.279797 -1.592533
1311877815.338588 0.598697 9.471380 -1.448846
1311877815.339815 0.598697 9.471380 -1.448846
1311877815.342867 0.071844 9.279797 -1.065680
1311877815.343916 0.071844 9.279797 -1.065680
1311877815.347538 0.407114 9.279797 -1.544637
1311877815.348672 0.407114 9.279797 -1.544637
1311877815.349813 0.407114 9.279797 -1.544637
1311877815.350812 0.407114 9.279797 -1.544637
1311877815.353941 0.419088 9.471380 -1.736220
1311877815.354927 0.419088 9.471380 -1.736220
1311877815.358417 0.047896 9.279797 -1.544637
1311877815.359560 0.047896 9.279797 -1.544637
1311877815.362813 0.407114 9.375588 -1.209367
1311877815.363803 0.407114 9.375588 -1.209367
1311877815.365056 0.407114 9.375588 -1.209367
1311877815.366438 0.407114 9.375588 -1.209367
1311877815.369848 0.323296 9.088214 -1.736220
1311877815.370855 0.323296 9.088214 -1.736220
1311877815.373941 0.407114 9.279797 -1.927803
1311877815.375026 0.407114 9.279797 -1.927803
1311877815.378687 0.502905 9.447432 -1.448846
1311877815.379552 0.502905 9.447432 -1.448846
1311877815.382954 0.071844 9.088214 -1.353054
1311877815.384301 0.071844 9.088214 -1.353054
1311877815.387492 0.071844 9.279797 -1.544637
1311877815.388411 0.071844 9.279797 -1.544637
1311877815.389660 0.071844 9.279797 -1.544637
1311877815.390790 0.071844 9.279797 -1.544637
1311877815.393940 0.407114 9.375588 -1.927803
1311877815.394929 0.407114 9.375588 -1.927803
1311877815.398680 0.119739 9.184006 -1.640429
1311877815.399662 0.119739 9.184006 -1.640429
1311877815.402817 0.407114 9.471380 -1.544637
1311877815.403948 0.407114 9.471380 -1.544637
1311877815.407495 0.119739 9.471380 -1.544637
1311877815.408477 0.119739 9.471380 -1.544637
1311877815.409564 0.119739 9.471380 -1.544637
1311877815.412967 0.023948 9.279797 -1.915829
1311877815.413925 0.023948 9.279797 -1.915829
1311877815.417574 0.407114 9.471380 -1.544637
1311877815.418555 0.407114 9.471380 -1.544637
1311877815.419785 0.407114 9.471380 -1.544637
1311877815.420778 0.407114 9.471380 -1.544637
1311877815.423790 0.023948 9.184006 -1.448846
1311877815.424781 0.023948 9.184006 -1.448846
1311877815.428424 0.395140 9.375588 -1.257263
1311877815.429655 0.395140 9.375588 -1.257263
1311877815.432741 0.455009 9.279797 -1.736220
1311877815.433796 0.455009 9.279797 -1.736220
1311877815.435469 0.455009 9.279797 -1.736220
1311877815.438598 0.227505 9.279797 -1.568585
1311877815.439559 0.227505 9.279797 -1.568585
1311877815.442804 0.598697 9.375588 -1.353054
1311877815.443776 0.598697 9.375588 -1.353054
1311877815.447408 0.395140 9.279797 -1.640429
1311877815.448556 0.395140 9.279797 -1.640429
1311877815.449811 0.395140 9.279797 -1.640429
1311877815.450981 0.395140 9.279797 -1.640429
1311877815.453938 0.502905 9.112162 -2.023594
1311877815.455163 0.502905 9.112162 -2.023594
1311877815.458677 0.502905 9.279797 -1.544637
1311877815.459673 0.502905 9.279797 -1.544637
1311877815.462818 0.323296 9.088214 -1.448846
1311877815.463941 0.323296 9.088214 -1.448846
1311877815.467418 0.407114 9.088214 -1.592533
1311877815.468457 0.407114 9.088214 -1.592533
1311877815.469819 0.407114 9.088214 -1.592533
1311877815.470796 0.407114 9.088214 -1.592533
1311877815.474034 0.431062 9.459406 -1.640429
1311877815.477213 0.227505 9.279797 -1.544637
1311877815.478454 0.227505 9.279797 -1.544637
1311877815.479666 0.227505 9.279797 -1.544637
1311877815.480659 0.227505 9.279797 -1.544637
1311877815.483937 0.502905 9.447432 -1.353054
1311877815.484909 0.502905 9.447432 -1.353054
1311877815.488541 0.119739 9.279797 -1.544637
1311877815.489526 0.119739 9.279797 -1.544637
1311877815.492793 0.323296 9.279797 -1.736220
1311877815.493775 0.323296 9.279797 -1.736220
1311877815.497427 0.502905 9.447432 -1.532663
1311877815.498560 0.502905 9.447432 -1.532663
1311877815.499682 0.502905 9.447432 -1.532663
1311877815.502941 0.023948 9.136110 -1.448846
1311877815.503956 0.023948 9.136110 -1.448846
1311877815.505412 0.023948 9.136110 -1.448846
1311877815.508704 0.407114 9.279797 -1.640429
1311877815.509686 0.407114 9.279797 -1.640429
1311877815.512838 0.455009 9.279797 -1.544637
1311877815.513930 0.455009 9.279797 -1.544637
1311877815.517411 0.023948 9.184006 -1.736220
1311877815.518395 0.023948 9.184006 -1.736220
1311877815.519674 0.023948 9.184006 -1.736220
1311877815.520666 0.023948 9.184006 -1.736220
1311877815.523968 0.407114 9.375588 -1.640429
1311877815.524927 0.407114 9.375588 -1.640429
1311877815.528422 0.371192 9.279797 -1.736220
1311877815.529810 0.371192 9.279797 -1.736220
1311877815.532854 0.047896 9.375588 -1.736220
1311877815.533790 0.047896 9.375588 -1.736220
1311877815.534942 0.047896 9.375588 -1.736220
1311877815.538549 0.407114 9.662963 -1.209367
1311877815.539546 0.407114 9.662963 -1.209367
1311877815.542919 0.035922 9.136110 -1.640429
1311877815.543778 0.035922 9.136110 -1.640429
1311877815.547411 0.407114 9.375588 -1.736220
1311877815.548569 0.407114 9.375588 -1.736220
1311877815.549417 0.407114 9.375588 -1.736220
1311877815.552798 0.407114 9.459406 -1.257263
1311877815.553919 0.407114 9.459406 -1.257263
1311877815.557457 0.023948 9.279797 -1.161471
1311877815.558397 0.023948 9.279797 -1.161471
1311877815.559741 0.023948 9.279797 -1.161471
1311877815.560656 0.023948 9.279797 -1.161471
1311877815.563925 0.502905 9.423484 -1.544637
1311877815.565087 0.502905 9.423484 -1.544637
1311877815.568661 0.407114 9.279797 -1.736220
1311877815.569541 0.407114 9.279797 -1.736220
1311877815.572797 0.227505 9.136110 -1.544637
1311877815.573951 0.227505 9.136110 -1.544637
1311877815.577540 0.407114 9.375588 -1.353054
1311877815.578413 0.407114 9.375588 -1.353054
1311877815.579957 0.407114 9.375588 -1.353054
1311877815.582929 0.071844 9.136110 -1.592533
1311877815.583897 0.071844 9.136110 -1.592533
1311877815.587440 0.455009 9.375588 -1.832012
1311877815.588528 0.455009 9.375588 -1.832012
1311877815.589779 0.455009 9.375588 -1.832012
1311877815.590781 0.455009 9.375588 -1.832012
1311877815.593920 0.227505 9.471380 -1.544637
1311877815.594905 0.227505 9.471380 -1.544637
1311877815.598656 0.023948 9.184006 -1.592533
1311877815.599655 0.023948 9.184006 -1.592533
1311877815.602947 0.598697 9.423484 -1.640429
1311877815.603871 0.598697 9.423484 -1.640429
1311877815.607594 0.407114 9.279797 -1.640429
1311877815.608533 0.407114 9.279797 -1.640429
1311877815.609657 0.407114 9.279797 -1.640429
1311877815.612794 0.227505 9.279797 -1.353054
1311877815.613900 0.227505 9.279797 -1.353054
1311877815.617412 0.598697 9.279797 -1.257263
1311877815.618520 0.598697 9.279797 -1.257263
1311877815.619674 0.598697 9.279797 -1.257263
1311877815.620656 0.598697 9.279797 -1.257263
1311877815.623931 0.227505 9.088214 -1.879907
1311877815.624925 0.227505 9.088214 -1.879907
1311877815.628551 0.502905 9.375588 -1.736220
1311877815.629667 0.502905 9.375588 -1.736220
1311877815.632830 0.407114 9.279797 -1.544637
1311877815.633806 0.407114 9.279797 -1.544637
1311877815.637892 0.023948 9.184006 -1.736220
1311877815.638840 0.023948 9.184006 -1.736220
1311877815.639833 0.023948 9.184006 -1.736220
1311877815.642849 0.502905 9.447432 -1.640429
1311877815.643917 0.502905 9.447432 -1.640429
1311877815.647422 0.395140 9.375588 -1.592533
1311877815.648519 0.395140 9.375588 -1.592533
1311877815.649772 0.395140 9.375588 -1.592533
1311877815.650792 0.395140 9.375588 -1.592533
1311877815.653934 0.227505 9.279797 -1.592533
1311877815.654935 0.227505 9.279797 -1.592533
1311877815.658423 0.395140 9.279797 -1.544637
1311877815.659405 0.395140 9.279797 -1.544637
1311877815.662787 0.227505 9.112162 -1.736220
1311877815.663774 0.227505 9.112162 -1.736220
1311877815.665032 0.227505 9.112162 -1.736220
1311877815.666407 0.227505 9.112162 -1.736220
1311877815.669691 0.419088 9.447432 -1.496741
1311877815.670701 0.419088 9.447432 -1.496741
1311877815.673948 0.227505 9.279797 -1.520689
1311877815.674937 0.227505 9.279797 -1.520689
1311877815.678618 0.227505 9.184006 -1.736220
1311877815.679550 0.227505 9.184006 -1.736220
1311877815.682812 0.419088 9.459406 -1.640429
1311877815.683796 0.419088 9.459406 -1.640429
1311877815.685020 0.419088 9.459406 -1.640429
1311877815.686399 0.419088 9.459406 -1.640429
1311877815.689664 0.047896 9.184006 -1.496741
1311877815.690670 0.047896 9.184006 -1.496741
1311877815.693908 0.323296 9.279797 -1.448846
1311877815.694895 0.323296 9.279797 -1.448846
1311877815.698434 0.431062 9.375588 -1.556611
1311877815.699555 0.431062 9.375588 -1.556611
1311877815.702812 0.119739 9.088214 -1.903855
1311877815.703806 0.119739 9.088214 -1.903855
1311877815.705057 0.119739 9.088214 -1.903855
1311877815.706420 0.119739 9.088214 -1.903855
1311877815.709792 0.502905 9.471380 -1.544637
1311877815.710811 0.502905 9.471380 -1.544637
1311877815.714080 0.323296 9.279797 -1.640429
1311877815.717101 0.023948 9.279797 -1.736220
1311877815.718390 0.023948 9.279797 -1.736220
1311877815.719668 0.023948 9.279797 -1.736220
1311877815.720647 0.023948 9.279797 -1.736220
1311877815.723779 0.598697 9.471380 -1.736220
1311877815.724898 0.598697 9.471380 -1.736220
1311877815.728626 0.227505 9.423484 -1.496741
1311877815.729599 0.227505 9.423484 -1.496741
1311877815.732684 0.023948 9.279797 -1.544637
1311877815.733806 0.023948 9.279797 -1.544637
1311877815.734974 0.023948 9.279797 -1.544637
1311877815.736071 0.023948 9.279797 -1.544637
1311877815.739679 0.407114 9.279797 -1.568585
1311877815.740562 0.407114 9.279797 -1.568585
1311877815.743866 0.227505 9.279797 -1.544637
1311877815.744783 0.227505 9.279797 -1.544637
1311877815.748427 0.227505 9.471380 -1.161471
1311877815.749409 0.227505 9.471380 -1.161471
1311877815.752657 0.407114 9.447432 -1.448846
1311877815.753808 0.407114 9.447432 -1.448846
1311877815.754930 0.407114 9.447432 -1.448846
1311877815.756034 0.407114 9.447432 -1.448846
1311877815.760468 0.323296 9.136110 -2.023594
1311877815.762916 0.502905 9.471380 -1.544637
1311877815.763911 0.502905 9.471380 -1.544637
1311877815.767713 0.227505 9.375588 -1.353054
1311877815.768680 0.227505 9.375588 -1.353054
1311877815.769791 0.227505 9.375588 -1.353054
1311877815.772817 0.023948 9.136110 -1.736220
1311877815.773931 0.023948 9.136110 -1.736220
1311877815.777410 0.502905 9.423484 -1.927803
1311877815.778540 0.502905 9.423484 -1.927803
1311877815.779804 0.502905 9.423484 -1.927803
1311877815.780797 0.502905 9.423484 -1.927803
1311877815.783955 0.227505 9.279797 -1.736220
1311877815.784920 0.227505 9.279797 -1.736220
1311877815.788558 0.407114 9.279797 -1.353054
1311877815.789532 0.407114 9.279797 -1.353054
1311877815.792796 0.455009 9.279797 -1.544637
1311877815.793783 0.455009 9.279797 -1.544637
1311877815.797542 0.227505 9.136110 -2.119386
1311877815.798537 0.227505 9.136110 -2.119386
1311877815.799830 0.227505 9.136110 -2.119386
1311877815.800798 0.227505 9.136110 -2.119386
1311877815.803924 0.502905 9.471380 -1.353054
1311877815.805083 0.502905 9.471380 -1.353054
1311877815.808765 0.119739 9.471380 -1.161471
1311877815.809799 0.119739 9.471380 -1.161471
1311877815.812793 0.119739 9.279797 -1.496741
1311877815.813908 0.119739 9.279797 -1.496741
1311877815.817533 0.502905 9.471380 -1.592533
1311877815.818516 0.502905 9.471380 -1.592533
1311877815.819664 0.502905 9.471380 -1.592533
1311877815.820771 0.502905 9.471380 -1.592533
1311877815.823936 0.227505 9.279797 -1.353054
1311877815.824924 0.227505 9.279797 -1.353054
1311877815.828555 0.227505 9.423484 -1.137524
1311877815.829675 0.227505 9.423484 -1.137524
1311877815.832809 0.407114 9.279797 -1.544637
1311877815.833985 0.407114 9.279797 -1.544637
1311877815.837691 0.371192 9.088214 -2.310969
1311877815.840060 0.371192 9.088214 -2.310969
1311877815.842579 0.455009 9.471380 -1.879907
1311877815.843546 0.455009 9.471380 -1.879907
1311877815.844664 0.455009 9.471380 -1.879907
1311877815.845773 0.455009 9.471380 -1.879907
1311877815.849026 -0.167635 9.279797 -1.353054
1311877815.849928 -0.167635 9.279797 -1.353054
1311877815.853682 0.023948 9.279797 -1.927803
1311877815.854683 0.023948 9.279797 -1.927803
1311877815.857852 0.502905 9.375588 -2.119386
1311877815.858780 0.502905 9.375588 -2.119386
1311877815.862534 0.227505 9.471380 -1.640429
1311877815.863538 0.227505 9.471380 -1.640429
1311877815.864785 0.227505 9.471380 -1.640429
1311877815.865782 0.227505 9.471380 -1.640429
1311877815.869108 0.227505 9.375588 -1.065680
1311877815.870417 0.227505 9.375588 -1.065680
1311877815.873752 0.502905 9.423484 -1.640429
1311877815.874807 0.502905 9.423484 -1.640429
1311877815.877800 0.227505 9.184006 -1.927803
1311877815.878929 0.227505 9.184006 -1.927803
1311877815.883396 0.407114 9.423484 -1.496741
1311877815.884308 0.407114 9.423484 -1.496741
1311877815.885406 0.407114 9.423484 -1.496741
1311877815.888661 0.023948 9.136110 -1.185419
1311877815.889643 0.023948 9.136110 -1.185419
1311877815.892792 0.227505 9.088214 -1.640429
1311877815.893909 0.227505 9.088214 -1.640429
1311877815.897688 0.502905 9.471380 -1.927803
1311877815.898686 0.502905 9.471380 -1.927803
1311877815.899832 0.502905 9.471380 -1.927803
1311877815.902934 0.227505 9.459406 -1.353054
1311877815.903991 0.227505 9.459406 -1.353054
1311877815.907535 0.227505 9.375588 -1.209367
1311877815.908546 0.227505 9.375588 -1.209367
1311877815.909796 0.227505 9.375588 -1.209367
1311877815.910978 0.227505 9.375588 -1.209367
1311877815.914055 0.323296 9.184006 -1.832012
1311877815.915043 0.323296 9.184006 -1.832012
1311877815.918668 0.227505 9.184006 -1.927803
1311877815.919651 0.227505 9.184006 -1.927803
1311877815.922906 0.407114 9.519276 -1.353054
1311877815.923898 0.407114 9.519276 -1.353054
1311877815.927619 0.023948 9.279797 -1.209367
1311877815.928531 0.023948 9.279797 -1.209367
1311877815.929800 0.023948 9.279797 -1.209367
1311877815.930814 0.023948 9.279797 -1.209367
1311877815.934536 0.502905 9.136110 -1.975699
1311877815.935695 0.502905 9.136110 -1.975699
1311877815.939191 0.778306 9.471380 -1.592533
1311877815.942692 0.227505 9.279797 -1.257263
1311877815.943676 0.227505 9.279797 -1.257263
1311877815.944708 0.227505 9.279797 -1.257263
1311877815.947957 0.023948 8.705048 -1.353054
1311877815.948891 0.023948 8.705048 -1.353054
1311877815.950043 0.023948 8.705048 -1.353054
1311877815.953676 1.089628 7.172385 -0.203557
1311877815.954786 1.089628 7.172385 -0.203557
1311877815.957899 0.886071 10.237712 0.945941
1311877815.958899 0.886071 10.237712 0.945941
1311877815.962538 -1.700298 9.758754 -0.586723
1311877815.963646 -1.700298 9.758754 -0.586723
1311877815.964802 -1.700298 9.758754 -0.586723
1311877815.965785 -1.700298 9.758754 -0.586723
1311877815.969681 1.365028 8.513465 -3.053353
1311877815.970826 1.365028 8.513465 -3.053353
1311877815.974561 0.886071 10.213764 -1.927803
1311877815.975533 0.886071 10.213764 -1.927803
1311877815.979036 -0.754358 11.195626 -0.203557
1311877815.980062 -0.754358 11.195626 -0.203557
1311877815.983929 -0.538827 9.662963 -2.215177
1311877815.984890 -0.538827 9.662963 -2.215177
1311877815.988905 1.520689 9.854546 -5.184712
1311877815.990014 1.520689 9.854546 -5.184712
1311877815.993657 0.371192 10.189816 -4.514172
1311877815.994653 0.371192 10.189816 -4.514172
1311877815.998462 -0.059870 9.662963 -1.927803
1311877815.999700 -0.059870 9.662963 -1.927803
1311877816.002790 0.407114 8.369778 -1.556611
1311877816.003867 0.407114 8.369778 -1.556611
1311877816.005063 0.407114 8.369778 -1.556611
1311877816.006431 0.407114 8.369778 -1.556611
1311877816.012703 1.185419 9.088214 -3.867580
1311877816.013646 1.185419 9.088214 -3.867580
1311877816.015011 1.185419 9.088214 -3.867580
1311877816.015910 1.185419 9.088214 -3.867580
1311877816.022572 -0.011974 8.321882 -0.490931
1311877816.023559 -0.011974 8.321882 -0.490931
1311877816.024791 -0.011974 8.321882 -0.490931
1311877816.025788 -0.011974 8.321882 -0.490931
1311877816.029528 1.185419 9.088214 -2.310969
1311877816.030666 1.185419 9.088214 -2.310969
1311877816.034041 0.455009 9.842572 -1.209367
1311877816.035027 0.455009 9.842572 -1.209367
1311877816.038820 -0.167635 9.519276 0.275400
1311877816.039820 -0.167635 9.519276 0.275400
1311877816.042856 0.023948 9.662963 0.083818
1311877816.043917 0.023948 9.662963 0.083818
1311877816.047669 0.455009 9.279797 -1.257263
1311877816.048538 0.455009 9.279797 -1.257263
1311877816.049903 0.455009 9.279797 -1.257263
1311877816.050929 0.455009 9.279797 -1.257263
1311877816.054548 0.407114 9.567171 -0.730410
1311877816.055773 0.407114 9.567171 -0.730410
1311877816.058782 0.047896 9.279797 -0.203557
1311877816.059904 0.047896 9.279797 -0.203557
1311877816.063783 -0.347244 8.752944 -1.448846
1311877816.064896 -0.347244 8.752944 -1.448846
1311877816.067930 1.173445 8.896631 -2.310969
1311877816.069049 1.173445 8.896631 -2.310969
1311877816.072560 0.886071 9.758754 -1.927803
1311877816.073695 0.886071 9.758754 -1.927803
1311877816.074989 0.886071 9.758754 -1.927803
1311877816.077909 -0.538827 9.088214 -1.532663
1311877816.078789 -0.538827 9.088214 -1.532663
1311877816.082521 -0.059870 9.100188 -1.951751
1311877816.083510 -0.059870 9.100188 -1.951751
1311877816.084758 -0.059870 9.100188 -1.951751
1311877816.085782 -0.059870 9.100188 -1.951751
1311877816.089418 0.802253 9.662963 -3.125196
1311877816.092659 -0.311322 9.854546 -2.310969
1311877816.093771 -0.311322 9.854546 -2.310969
1311877816.094912 -0.311322 9.854546 -2.310969
1311877816.095922 -0.311322 9.854546 -2.310969
1311877816.099874 0.011974 8.992423 -1.161471
1311877816.103197 0.023948 9.088214 -1.736220
1311877816.104413 0.023948 9.088214 -1.736220
1311877816.108395 0.455009 9.471380 -2.119386
1311877816.109402 0.455009 9.471380 -2.119386
1311877816.112690 -0.011974 9.471380 -0.874097
1311877816.113788 -0.011974 9.471380 -0.874097
1311877816.115033 -0.011974 9.471380 -0.874097
1311877816.116048 -0.011974 9.471380 -0.874097
1311877816.119570 -0.167635 9.136110 -0.730410
1311877816.120693 -0.167635 9.136110 -0.730410
1311877816.123906 0.407114 9.662963 -1.544637
1311877816.125016 0.407114 9.662963 -1.544637
1311877816.128647 0.071844 9.842572 -1.257263
1311877816.129659 0.071844 9.842572 -1.257263
1311877816.132921 0.023948 9.662963 -0.586723
1311877816.133967 0.023948 9.662963 -0.586723
1311877816.137575 0.323296 9.519276 -0.730410
1311877816.138771 0.323296 9.519276 -0.730410
1311877816.139970 0.323296 9.519276 -0.730410
1311877816.143065 0.323296 9.112162 -1.832012
1311877816.144414 0.323296 9.112162 -1.832012
1311877816.147673 0.778306 9.471380 -1.592533
1311877816.148668 0.778306 9.471380 -1.592533
1311877816.150057 0.778306 9.471380 -1.592533
1311877816.151032 0.778306 9.471380 -1.592533
1311877816.154560 0.119739 8.992423 -1.185419
1311877816.155544 0.119739 8.992423 -1.185419
1311877816.158896 0.047896 8.896631 -1.640429
1311877816.159899 0.047896 8.896631 -1.640429
1311877816.163531 0.886071 9.088214 -2.215177
1311877816.164558 0.886071 9.088214 -2.215177
1311877816.167799 0.455009 9.184006 -1.832012
1311877816.168809 0.455009 9.184006 -1.832012
1311877816.172951 0.023948 9.088214 -1.496741
1311877816.174128 0.023948 9.088214 -1.496741
1311877816.175436 0.023948 9.088214 -1.496741
1311877816.176441 0.023948 9.088214 -1.496741
1311877816.179810 0.502905 9.184006 -1.951751
1311877816.180767 0.502905 9.184006 -1.951751
1311877816.183918 0.407114 9.279797 -1.903855
1311877816.184908 0.407114 9.279797 -1.903855
1311877816.188522 0.323296 9.471380 -1.161471
1311877816.189654 0.323296 9.471380 -1.161471
1311877816.192811 0.227505 9.471380 -0.826201
1311877816.193771 0.227505 9.471380 -0.826201
1311877816.197533 0.227505 9.279797 -1.161471
1311877816.198531 0.227505 9.279797 -1.161471
1311877816.199833 0.227505 9.279797 -1.161471
1311877816.200861 0.227505 9.279797 -1.161471
1311877816.203913 0.598697 9.471380 -1.520689
1311877816.204932 0.598697 9.471380 -1.520689
1311877816.209018 0.407114 9.279797 -1.065680
1311877816.209897 0.407114 9.279797 -1.065680
1311877816.211047 0.407114 9.279797 -1.065680
1311877816.214533 0.407114 9.112162 -1.161471
1311877816.215528 0.407114 9.112162 -1.161471
1311877816.218771 0.790279 9.447432 -1.736220
1311877816.219759 0.790279 9.447432 -1.736220
1311877816.223408 0.502905 9.184006 -1.903855
1311877816.224386 0.502905 9.184006 -1.903855
1311877816.227676 0.407114 9.375588 -1.496741
1311877816.228767 0.407114 9.375588 -1.496741
1311877816.230395 0.407114 9.375588 -1.496741
1311877816.233520 0.323296 9.184006 -1.556611
1311877816.234524 0.323296 9.184006 -1.556611
1311877816.237987 0.323296 9.279797 -2.215177
1311877816.239069 0.323296 9.279797 -2.215177
1311877816.242569 0.706462 9.471380 -1.927803
1311877816.243540 0.706462 9.471380 -1.927803
1311877816.244792 0.706462 9.471380 -1.927803
1311877816.245784 0.706462 9.471380 -1.927803
1311877816.248923 0.023948 9.279797 -1.544637
1311877816.250055 0.023948 9.279797 -1.544637
1311877816.253530 0.023948 9.184006 -1.568585
1311877816.254529 0.023948 9.184006 -1.568585
1311877816.257774 0.502905 9.471380 -1.939777
1311877816.258789 0.502905 9.471380 -1.939777
1311877816.260070 0.502905 9.471380 -1.939777
1311877816.261185 0.502905 9.471380 -1.939777
1311877816.264657 0.227505 9.423484 -1.544637
1311877816.265773 0.227505 9.423484 -1.544637
1311877816.269094 0.323296 9.471380 -1.161471
1311877816.272531 0.407114 9.447432 -1.353054
1311877816.273526 0.407114 9.447432 -1.353054
1311877816.274662 0.407114 9.447432 -1.353054
1311877816.275778 0.407114 9.447432 -1.353054
1311877816.278959 0.371192 9.184006 -1.927803
1311877816.280032 0.371192 9.184006 -1.927803
1311877816.283676 0.455009 9.471380 -1.353054
1311877816.284657 0.455009 9.471380 -1.353054
1311877816.287810 0.071844 9.136110 -1.161471
1311877816.288805 0.071844 9.136110 -1.161471
1311877816.292415 0.023948 9.088214 -1.556611
1311877816.293580 0.023948 9.088214 -1.556611
1311877816.294670 0.023948 9.088214 -1.556611
1311877816.295640 0.023948 9.088214 -1.556611
1311877816.298917 0.598697 9.447432 -1.927803
1311877816.299915 0.598697 9.447432 -1.927803
1311877816.303720 0.227505 9.279797 -1.544637
1311877816.305959 0.227505 9.279797 -1.544637
1311877816.307796 0.227505 9.279797 -1.209367
1311877816.308787 0.227505 9.279797 -1.209367
1311877816.312580 0.455009 9.279797 -1.879907
1311877816.313529 0.455009 9.279797 -1.879907
1311877816.314838 0.455009 9.279797 -1.879907
1311877816.315898 0.455009 9.279797 -1.879907
1311877816.318931 0.227505 9.279797 -2.023594
1311877816.319942 0.227505 9.279797 -2.023594
1311877816.323653 0.407114 9.495328 -1.353054
1311877816.324633 0.407114 9.495328 -1.353054
1311877816.327773 0.227505 9.279797 -1.448846
1311877816.328760 0.227505 9.279797 -1.448846
1311877816.332425 -0.059870 9.184006 -1.736220
1311877816.333465 -0.059870 9.184006 -1.736220
1311877816.334868 -0.059870 9.184006 -1.736220
1311877816.337800 0.502905 9.471380 -1.736220
1311877816.338912 0.502905 9.471380 -1.736220
1311877816.342528 0.035922 9.375588 -1.353054
1311877816.343390 0.035922 9.375588 -1.353054
1311877816.344647 0.035922 9.375588 -1.353054
1311877816.345765 0.035922 9.375588 -1.353054
1311877816.348788 0.227505 9.375588 -1.448846
1311877816.350013 0.227505 9.375588 -1.448846
1311877816.353520 0.419088 9.423484 -1.939777
1311877816.354535 0.419088 9.423484 -1.939777
1311877816.357771 0.227505 9.184006 -1.975699
1311877816.358756 0.227505 9.184006 -1.975699
1311877816.362557 0.371192 9.662963 -1.544637
1311877816.363513 0.371192 9.662963 -1.544637
1311877816.364685 0.371192 9.662963 -1.544637
1311877816.365797 0.371192 9.662963 -1.544637
1311877816.368965 -0.059870 9.279797 -1.832012
1311877816.370053 -0.059870 9.279797 -1.832012
1311877816.373584 0.371192 9.136110 -2.215177
1311877816.374664 0.371192 9.136110 -2.215177
1311877816.377934 0.754358 9.519276 -1.927803
1311877816.378898 0.754358 9.519276 -1.927803
1311877816.382545 0.119739 9.279797 -1.353054
1311877816.383508 0.119739 9.279797 -1.353054
1311877816.384753 0.119739 9.279797 -1.353054
1311877816.385783 0.119739 9.279797 -1.353054
1311877816.388896 0.227505 9.184006 -1.640429
1311877816.389879 0.227505 9.184006 -1.640429
1311877816.393524 0.455009 9.279797 -1.927803
1311877816.394640 0.455009 9.279797 -1.927803
1311877816.397782 0.023948 9.423484 -1.736220
1311877816.398766 0.023948 9.423484 -1.736220
1311877816.402554 0.119739 9.471380 -0.969888
1311877816.403523 0.119739 9.471380 -0.969888
1311877816.404802 0.119739 9.471380 -0.969888
1311877816.405921 0.119739 9.471380 -0.969888
1311877816.408930 0.227505 9.279797 -1.544637
1311877816.410063 0.227505 9.279797 -1.544637
1311877816.413676 0.227505 9.279797 -1.736220
1311877816.414771 0.227505 9.279797 -1.736220
1311877816.415673 0.227505 9.279797 -1.736220
1311877816.418939 0.371192 9.471380 -1.185419
1311877816.419883 0.371192 9.471380 -1.185419
1311877816.423553 -0.059870 9.112162 -1.065680
1311877816.424634 -0.059870 9.112162 -1.065680
1311877816.427916 0.323296 9.088214 -1.592533
1311877816.428945 0.323296 9.088214 -1.592533
1311877816.432402 0.502905 9.279797 -1.736220
1311877816.433585 0.502905 9.279797 -1.736220
1311877816.434801 0.502905 9.279797 -1.736220
1311877816.435797 0.502905 9.279797 -1.736220
1311877816.438933 0.227505 9.112162 -1.161471
1311877816.440032 0.227505 9.112162 -1.161471
1311877816.443675 0.395140 9.423484 -1.161471
1311877816.444665 0.395140 9.423484 -1.161471
1311877816.447908 0.323296 9.279797 -1.832012
1311877816.448918 0.323296 9.279797 -1.832012
1311877816.452545 0.371192 9.279797 -2.119386
1311877816.453532 0.371192 9.279797 -2.119386
1311877816.454798 0.371192 9.279797 -2.119386
1311877816.455895 0.371192 9.279797 -2.119386
1311877816.460130 0.502905 9.471380 -0.969888
1311877816.462525 0.071844 9.184006 -1.113576
1311877816.463652 0.071844 9.184006 -1.113576
1311877816.464790 0.071844 9.184006 -1.113576
1311877816.465951 0.071844 9.184006 -1.113576
1311877816.469038 0.407114 9.279797 -1.592533
1311877816.469914 0.407114 9.279797 -1.592533
1311877816.473570 0.706462 9.471380 -1.879907
1311877816.474675 0.706462 9.471380 -1.879907
1311877816.477903 0.047896 9.279797 -1.185419
1311877816.479024 0.047896 9.279797 -1.185419
1311877816.482529 0.323296 9.375588 -0.874097
1311877816.483509 0.323296 9.375588 -0.874097
1311877816.484877 0.323296 9.375588 -0.874097
1311877816.485781 0.323296 9.375588 -0.874097
1311877816.488892 0.407114 9.279797 -1.736220
1311877816.490381 0.407114 9.279797 -1.736220
1311877816.493675 0.407114 9.279797 -1.927803
1311877816.494659 0.407114 9.279797 -1.927803
1311877816.497917 0.431062 9.471380 -1.257263
1311877816.499045 0.431062 9.471380 -1.257263
1311877816.502538 0.023948 9.279797 -1.353054
1311877816.503528 0.023948 9.279797 -1.353054
1311877816.504667 0.023948 9.279797 -1.353054
1311877816.505777 0.023948 9.279797 -1.353054
1311877816.509093 0.407114 9.471380 -1.927803
1311877816.512619 0.598697 9.471380 -1.939777
1311877816.513676 0.598697 9.471380 -1.939777
1311877816.514792 0.598697 9.471380 -1.939777
1311877816.517897 -0.011974 9.375588 -1.353054
1311877816.518889 -0.011974 9.375588 -1.353054
1311877816.522548 0.035922 9.279797 -1.209367
1311877816.523514 0.035922 9.279797 -1.209367
1311877816.524642 0.035922 9.279797 -1.209367
1311877816.525758 0.035922 9.279797 -1.209367
1311877816.529023 0.502905 9.100188 -1.939777
1311877816.530384 0.502905 9.100188 -1.939777
1311877816.533788 0.407114 9.279797 -1.544637
1311877816.534806 0.407114 9.279797 -1.544637
1311877816.537926 0.323296 9.447432 -1.161471
1311877816.538910 0.323296 9.447432 -1.161471
1311877816.542811 0.071844 9.088214 -1.257263
1311877816.543770 0.071844 9.088214 -1.257263
1311877816.544814 0.071844 9.088214 -1.257263
1311877816.548596 0.754358 9.279797 -1.951751
1311877816.549529 0.754358 9.279797 -1.951751
1311877816.552670 0.598697 9.662963 -1.544637
1311877816.553774 0.598697 9.662963 -1.544637
1311877816.555254 0.598697 9.662963 -1.544637
1311877816.558515 0.011974 9.088214 -1.161471
1311877816.559605 0.011974 9.088214 -1.161471
1311877816.562899 0.598697 9.423484 -1.496741
1311877816.563900 0.598697 9.423484 -1.496741
1311877816.567555 0.598697 9.279797 -1.975699
1311877816.568532 0.598697 9.279797 -1.975699
1311877816.569911 0.598697 9.279797 -1.975699
1311877816.571143 0.598697 9.279797 -1.975699
1311877816.574046 0.407114 9.447432 -1.544637
1311877816.577529 0.455009 9.279797 -1.161471
1311877816.578516 0.455009 9.279797 -1.161471
1311877816.579792 0.455009 9.279797 -1.161471
1311877816.580827 0.455009 9.279797 -1.161471
1311877816.583920 0.023948 9.184006 -1.927803
1311877816.585007 0.023948 9.184006 -1.927803
1311877816.588514 0.407114 9.459406 -2.119386
1311877816.589632 0.407114 9.459406 -2.119386
1311877816.592772 0.706462 9.662963 -1.544637
1311877816.593887 0.706462 9.662963 -1.544637
1311877816.597533 -0.167635 9.459406 -1.353054
1311877816.598552 -0.167635 9.459406 -1.353054
1311877816.599798 -0.167635 9.459406 -1.353054
1311877816.600921 -0.167635 9.459406 -1.353054
1311877816.604038 0.407114 9.519276 -1.975699
1311877816.604925 0.407114 9.519276 -1.975699
1311877816.608653 0.407114 9.375588 -1.975699
1311877816.609683 0.407114 9.375588 -1.975699
1311877816.612901 0.023948 9.279797 -1.137524
1311877816.614280 0.023948 9.279797 -1.137524
1311877816.617515 0.227505 9.471380 -0.969888
1311877816.618500 0.227505 9.471380 -0.969888
1311877816.619753 0.227505 9.471380 -0.969888
1311877816.620821 0.227505 9.471380 -0.969888
1311877816.624268 0.323296 9.088214 -1.927803
1311877816.625381 0.323296 9.088214 -1.927803
1311877816.628654 0.371192 9.279797 -1.927803
1311877816.629640 0.371192 9.279797 -1.927803
1311877816.632890 0.407114 9.279797 -1.257263
1311877816.633922 0.407114 9.279797 -1.257263
1311877816.637637 0.023948 9.184006 -0.969888
1311877816.638525 0.023948 9.184006 -0.969888
1311877816.639802 0.023948 9.184006 -0.969888
1311877816.640854 0.023948 9.184006 -0.969888
1311877816.644036 0.407114 9.447432 -1.903855
1311877816.645077 0.407114 9.447432 -1.903855
1311877816.648654 0.407114 9.375588 -2.119386
1311877816.649783 0.407114 9.375588 -2.119386
1311877816.652913 0.119739 9.471380 -1.353054
1311877816.653897 0.119739 9.471380 -1.353054
1311877816.657522 0.323296 9.471380 -0.969888
1311877816.658504 0.323296 9.471380 -0.969888
1311877816.659756 0.323296 9.471380 -0.969888
1311877816.660782 0.323296 9.471380 -0.969888
1311877816.664439 0.227505 9.375588 -2.119386
1311877816.667562 0.407114 9.423484 -2.119386
1311877816.668662 0.407114 9.423484 -2.119386
1311877816.669946 0.407114 9.423484 -2.119386
1311877816.672944 0.407114 9.495328 -1.448846
1311877816.674046 0.407114 9.495328 -1.448846
1311877816.677520 0.023948 9.375588 -1.137524
1311877816.678548 0.023948 9.375588 -1.137524
1311877816.679770 0.023948 9.375588 -1.137524
1311877816.680749 0.023948 9.375588 -1.137524
1311877816.683909 0.502905 9.459406 -1.927803
1311877816.685020 0.502905 9.459406 -1.927803
1311877816.688639 0.371192 9.279797 -2.119386
1311877816.689623 0.371192 9.279797 -2.119386
1311877816.692799 0.071844 9.375588 -1.544637
1311877816.693909 0.071844 9.375588 -1.544637
1311877816.697522 0.227505 9.375588 -0.969888
1311877816.698660 0.227505 9.375588 -0.969888
1311877816.699792 0.227505 9.375588 -0.969888
1311877816.700841 0.227505 9.375588 -0.969888
1311877816.704075 0.023948 9.279797 -1.951751
1311877816.705418 0.023948 9.279797 -1.951751
1311877816.708708 0.598697 9.423484 -1.927803
1311877816.709646 0.598697 9.423484 -1.927803
1311877816.712899 0.407114 9.423484 -1.065680
1311877816.714017 0.407114 9.423484 -1.065680
1311877816.717518 -0.167635 9.088214 -0.682514
1311877816.718498 -0.167635 9.088214 -0.682514
1311877816.719903 -0.167635 9.088214 -0.682514
1311877816.720784 -0.167635 9.088214 -0.682514
1311877816.724412 0.754358 9.471380 -1.161471
1311877816.725524 0.754358 9.471380 -1.161471
1311877816.728767 0.407114 9.088214 -1.556611
1311877816.729888 0.407114 9.088214 -1.556611
1311877816.733560 0.119739 9.088214 -1.161471
1311877816.734526 0.119739 9.088214 -1.161471
1311877816.737959 0.431062 9.184006 -0.682514
1311877816.741009 0.431062 9.184006 -0.682514
1311877816.742541 0.323296 9.184006 -1.257263
1311877816.743520 0.323296 9.184006 -1.257263
1311877816.744769 0.323296 9.184006 -1.257263
1311877816.745765 0.323296 9.184006 -1.257263
1311877816.749022 0.455009 9.279797 -1.736220
1311877816.750044 0.455009 9.279797 -1.736220
1311877816.753511 0.706462 9.423484 -1.448846
1311877816.754666 0.706462 9.423484 -1.448846
1311877816.757762 0.371192 9.279797 -1.353054
1311877816.758752 0.371192 9.279797 -1.353054
1311877816.762472 0.371192 9.279797 -1.353054
1311877816.763391 0.371192 9.279797 -1.353054
1311877816.764595 0.371192 9.279797 -1.353054
1311877816.767894 0.407114 9.088214 -1.927803
1311877816.768883 0.407114 9.088214 -1.927803
1311877816.772555 0.407114 9.088214 -1.927803
1311877816.773534 0.407114 9.088214 -1.927803
1311877816.775699 0.407114 9.088214 -1.927803
1311877816.778836 0.502905 9.483354 -0.874097
1311877816.779763 0.502905 9.483354 -0.874097
1311877816.781021 0.502905 9.483354 -0.874097
1311877816.783881 -0.167635 9.088214 -1.496741
1311877816.785006 -0.167635 9.088214 -1.496741
1311877816.788534 0.598697 9.459406 -1.832012
1311877816.789641 0.598697 9.459406 -1.832012
1311877816.792788 0.790279 9.662963 -1.544637
1311877816.793774 0.790279 9.662963 -1.544637
1311877816.797390 -0.167635 9.471380 -1.065680
1311877816.798519 -0.167635 9.471380 -1.065680
1311877816.799782 -0.167635 9.471380 -1.065680
1311877816.800834 -0.167635 9.471380 -1.065680
1311877816.803787 0.407114 9.423484 -1.209367
1311877816.804901 0.407114 9.423484 -1.209367
1311877816.808579 0.455009 9.423484 -1.939777
1311877816.809658 0.455009 9.423484 -1.939777
1311877816.812793 0.047896 9.279797 -1.927803
1311877816.813897 0.047896 9.279797 -1.927803
1311877816.817530 0.407114 9.423484 -1.161471
1311877816.818641 0.407114 9.423484 -1.161471
1311877816.819776 0.407114 9.423484 -1.161471
1311877816.820800 0.407114 9.423484 -1.161471
1311877816.823887 0.023948 9.184006 -1.568585
1311877816.824882 0.023948 9.184006 -1.568585
1311877816.828501 0.371192 9.279797 -1.927803
1311877816.829626 0.371192 9.279797 -1.927803
1311877816.832825 0.598697 9.375588 -1.975699
1311877816.833772 0.598697 9.375588 -1.975699
1311877816.837513 0.323296 9.184006 -1.568585
1311877816.838393 0.323296 9.184006 -1.568585
1311877816.839815 0.323296 9.184006 -1.568585
1311877816.841793 0.323296 9.184006 -1.568585
1311877816.843919 0.407114 9.519276 -1.257263
1311877816.844912 0.407114 9.519276 -1.257263
1311877816.848650 0.407114 9.112162 -2.298995
1311877816.849765 0.407114 9.112162 -2.298995
1311877816.852896 0.407114 9.112162 -2.119386
1311877816.853901 0.407114 9.112162 -2.119386
1311877816.857517 0.598697 9.471380 -1.161471
1311877816.858629 0.598697 9.471380 -1.161471
1311877816.859756 0.598697 9.471380 -1.161471
1311877816.860875 0.598697 9.471380 -1.161471
1311877816.864557 -0.167635 9.136110 -1.257263
1311877816.865516 -0.167635 9.136110 -1.257263
1311877816.869367 0.407114 9.184006 -2.023594
1311877816.872053 0.802253 9.375588 -2.119386
1311877816.873025 0.802253 9.375588 -2.119386
1311877816.874645 0.802253 9.375588 -2.119386
1311877816.875640 0.802253 9.375588 -2.119386
1311877816.879024 -0.167635 9.375588 -1.209367
1311877816.880174 -0.167635 9.375588 -1.209367
1311877816.883507 0.023948 9.279797 -1.161471
1311877816.884619 0.023948 9.279797 -1.161471
1311877816.888897 0.407114 9.375588 -1.951751
1311877816.889623 0.407114 9.375588 -1.951751
1311877816.890746 0.407114 9.375588 -1.951751
1311877816.893904 0.119739 9.471380 -2.119386
1311877816.894879 0.119739 9.471380 -2.119386
1311877816.898562 0.227505 9.471380 -1.448846
1311877816.899660 0.227505 9.471380 -1.448846
1311877816.903738 0.023948 9.136110 -1.353054
1311877816.904675 0.023948 9.136110 -1.353054
1311877816.906502 0.023948 9.136110 -1.353054
1311877816.909206 0.323296 9.471380 -2.119386
1311877816.910399 0.323296 9.471380 -2.119386
1311877816.913662 0.502905 9.471380 -2.119386
1311877816.914646 0.502905 9.471380 -2.119386
1311877816.917911 0.119739 9.279797 -1.520689
1311877816.918896 0.119739 9.279797 -1.520689
1311877816.922537 0.023948 9.088214 -1.353054
1311877816.923509 0.023948 9.088214 -1.353054
1311877816.924649 0.023948 9.088214 -1.353054
1311877816.925792 0.023948 9.088214 -1.353054
1311877816.929009 0.502905 9.279797 -2.119386
1311877816.930383 0.502905 9.279797 -2.119386
1311877816.933642 0.407114 9.279797 -1.927803
1311877816.934641 0.407114 9.279797 -1.927803
1311877816.937925 0.323296 9.375588 -1.353054
1311877816.939030 0.323296 9.375588 -1.353054
1311877816.942580 0.227505 9.088214 -1.353054
1311877816.943577 0.227505 9.088214 -1.353054
1311877816.944642 0.227505 9.088214 -1.353054
1311877816.945766 0.227505 9.088214 -1.353054
1311877816.949033 0.407114 9.279797 -2.119386
1311877816.950425 0.407114 9.279797 -2.119386
1311877816.953652 0.227505 9.279797 -1.736220
1311877816.954774 0.227505 9.279797 -1.736220
1311877816.957762 0.023948 9.136110 -1.257263
1311877816.958878 0.023948 9.136110 -1.257263
1311877816.962409 0.071844 9.423484 -1.353054
1311877816.963522 0.071844 9.423484 -1.353054
1311877816.964661 0.071844 9.423484 -1.353054
1311877816.965820 0.071844 9.423484 -1.353054
1311877816.968951 0.407114 9.423484 -2.023594
1311877816.970053 0.407114 9.423484 -2.023594
1311877816.973649 0.371192 9.375588 -1.592533
1311877816.974645 0.371192 9.375588 -1.592533
1311877816.977895 0.227505 9.471380 -1.161471
1311877816.978896 0.227505 9.471380 -1.161471
1311877816.982525 0.023948 9.088214 -1.448846
1311877816.983507 0.023948 9.088214 -1.448846
1311877816.984890 0.023948 9.088214 -1.448846
1311877816.985891 0.023948 9.088214 -1.448846
1311877816.988901 0.431062 9.279797 -1.927803
1311877816.989870 0.431062 9.279797 -1.927803
1311877816.993518 0.323296 9.184006 -1.592533
1311877816.994635 0.323296 9.184006 -1.592533
1311877816.997788 -0.167635 9.136110 -1.209367
1311877816.998905 -0.167635 9.136110 -1.209367
1311877817.003040 0.431062 9.471380 -1.568585
1311877817.004400 0.431062 9.471380 -1.568585
1311877817.007647 0.407114 9.471380 -2.263073
1311877817.008793 0.407114 9.471380 -2.263073
1311877817.009894 0.407114 9.471380 -2.263073
1311877817.011015 0.407114 9.471380 -2.263073
1311877817.014527 0.227505 9.279797 -1.736220
1311877817.015652 0.227505 9.279797 -1.736220
1311877817.018905 0.431062 9.423484 -1.520689
1311877817.019768 0.431062 9.423484 -1.520689
1311877817.023505 0.023948 9.184006 -1.879907
1311877817.024515 0.023948 9.184006 -1.879907
1311877817.027756 0.227505 9.447432 -2.263073
1311877817.028752 0.227505 9.447432 -2.263073
1311877817.032399 0.754358 9.519276 -1.927803
1311877817.033514 0.754358 9.519276 -1.927803
1311877817.034828 0.754358 9.519276 -1.927803
1311877817.037817 -0.167635 9.279797 -1.448846
1311877817.038903 -0.167635 9.279797 -1.448846
1311877817.042430 0.227505 9.423484 -1.448846
1311877817.043517 0.227505 9.423484 -1.448846
1311877817.044661 0.227505 9.423484 -1.448846
1311877817.045766 0.227505 9.423484 -1.448846
1311877817.049048 0.455009 9.279797 -1.903855
1311877817.052401 0.023948 9.279797 -1.544637
1311877817.053519 0.023948 9.279797 -1.544637
1311877817.054784 0.023948 9.279797 -1.544637
1311877817.055765 0.023948 9.279797 -1.544637
1311877817.058890 0.407114 9.375588 -0.969888
1311877817.059997 0.407114 9.375588 -0.969888
1311877817.063765 0.407114 9.184006 -1.520689
1311877817.064757 0.407114 9.184006 -1.520689
1311877817.067766 0.227505 9.279797 -1.544637
1311877817.068772 0.227505 9.279797 -1.544637
1311877817.072423 0.407114 9.423484 -1.257263
1311877817.073598 0.407114 9.423484 -1.257263
1311877817.074554 0.407114 9.423484 -1.257263
1311877817.077903 0.227505 9.040318 -1.544637
1311877817.078899 0.227505 9.040318 -1.544637
1311877817.082530 0.323296 9.279797 -1.448846
1311877817.083519 0.323296 9.279797 -1.448846
1311877817.084746 0.323296 9.279797 -1.448846
1311877817.085740 0.323296 9.279797 -1.448846
1311877817.088886 0.395140 9.100188 -1.568585
1311877817.089871 0.395140 9.100188 -1.568585
1311877817.093508 0.371192 9.375588 -1.257263
1311877817.094508 0.371192 9.375588 -1.257263
1311877817.097811 0.419088 9.471380 -1.209367
1311877817.098907 0.419088 9.471380 -1.209367
1311877817.102540 0.227505 9.136110 -1.544637
1311877817.103437 0.227505 9.136110 -1.544637
1311877817.104805 0.227505 9.136110 -1.544637
1311877817.105788 0.227505 9.136110 -1.544637
1311877817.108909 0.407114 9.471380 -1.544637
1311877817.109877 0.407114 9.471380 -1.544637
1311877817.113502 0.323296 9.279797 -1.448846
1311877817.114366 0.323296 9.279797 -1.448846
1311877817.117749 0.035922 9.112162 -1.448846
1311877817.118744 0.035922 9.112162 -1.448846
1311877817.119863 0.035922 9.112162 -1.448846
1311877817.120890 0.035922 9.112162 -1.448846
1311877817.124525 0.502905 9.662963 -1.832012
1311877817.125615 0.502905 9.662963 -1.832012
1311877817.128967 0.119739 9.279797 -2.119386
1311877817.129879 0.119739 9.279797 -2.119386
1311877817.133774 0.119739 9.184006 -1.736220
1311877817.134802 0.119739 9.184006 -1.736220
1311877817.135809 0.119739 9.184006 -1.736220
1311877817.139165 0.598697 9.519276 -1.353054
1311877817.142805 0.119739 9.279797 -1.832012
1311877817.143925 0.119739 9.279797 -1.832012
1311877817.144906 0.119739 9.279797 -1.832012
1311877817.145889 0.119739 9.279797 -1.832012
1311877817.149511 0.407114 9.279797 -1.832012
1311877817.150507 0.407114 9.279797 -1.832012
1311877817.153765 0.838175 9.662963 -1.161471
1311877817.154863 0.838175 9.662963 -1.161471
1311877817.158386 0.023948 9.184006 -0.969888
1311877817.159389 0.023948 9.184006 -0.969888
1311877817.162657 -0.167635 9.184006 -1.185419
1311877817.163775 -0.167635 9.184006 -1.185419
1311877817.164957 -0.167635 9.184006 -1.185419
1311877817.166057 -0.167635 9.184006 -1.185419
1311877817.169779 1.089628 9.088214 -1.927803
1311877817.170915 1.089628 9.088214 -1.927803
1311877817.174090 0.023948 9.423484 -1.353054
1311877817.177508 -0.359218 9.459406 -0.969888
1311877817.178519 -0.359218 9.459406 -0.969888
1311877817.179754 -0.359218 9.459406 -0.969888
1311877817.180773 -0.359218 9.459406 -0.969888
1311877817.184389 1.365028 9.088214 -1.927803
1311877817.187521 0.706462 9.279797 -2.406760
1311877817.188511 0.706462 9.279797 -2.406760
1311877817.189884 0.706462 9.279797 -2.406760
1311877817.191041 0.706462 9.279797 -2.406760
1311877817.194529 0.071844 9.136110 -1.927803
1311877817.195508 0.071844 9.136110 -1.927803
1311877817.198900 0.371192 9.088214 -1.544637
1311877817.199919 0.371192 9.088214 -1.544637
1311877817.203525 -0.167635 9.471380 -1.927803
1311877817.204406 -0.167635 9.471380 -1.927803
1311877817.207793 0.395140 9.279797 -2.358865
1311877817.208773 0.395140 9.279797 -2.358865
1311877817.210409 0.395140 9.279797 -2.358865
1311877817.213749 0.407114 9.662963 -1.544637
1311877817.214619 0.407114 9.662963 -1.544637
1311877817.217750 -0.311322 9.375588 -1.113576
1311877817.218906 -0.311322 9.375588 -1.113576
1311877817.222526 0.011974 9.447432 -1.544637
1311877817.223522 0.011974 9.447432 -1.544637
1311877817.224747 0.011974 9.447432 -1.544637
1311877817.225767 0.011974 9.447432 -1.544637
1311877817.228897 0.407114 9.471380 -1.927803
1311877817.229890 0.407114 9.471380 -1.927803
1311877817.233656 -0.059870 9.471380 -1.257263
1311877817.234622 -0.059870 9.471380 -1.257263
1311877817.237888 -0.311322 9.088214 -1.185419
1311877817.238883 -0.311322 9.088214 -1.185419
1311877817.242404 0.502905 9.495328 -1.736220
1311877817.243389 0.502905 9.495328 -1.736220
1311877817.244830 0.502905 9.495328 -1.736220
1311877817.245817 0.502905 9.495328 -1.736220
1311877817.248919 0.119739 9.375588 -1.951751
1311877817.249885 0.119739 9.375588 -1.951751
1311877817.253509 -0.263426 9.423484 -1.353054
1311877817.254660 -0.263426 9.423484 -1.353054
1311877817.257757 0.323296 9.279797 -1.353054
1311877817.258751 0.323296 9.279797 -1.353054
1311877817.260255 0.323296 9.279797 -1.353054
1311877817.261370 0.323296 9.279797 -1.353054
1311877817.264771 0.119739 9.088214 -2.119386
1311877817.265937 0.119739 9.088214 -2.119386
1311877817.268908 0.227505 9.459406 -1.736220
1311877817.270083 0.227505 9.459406 -1.736220
1311877817.273658 0.023948 9.279797 -1.161471
1311877817.274677 0.023948 9.279797 -1.161471
1311877817.277779 -0.167635 9.100188 -1.448846
1311877817.278908 -0.167635 9.100188 -1.448846
1311877817.282524 0.407114 9.471380 -1.903855
1311877817.283520 0.407114 9.471380 -1.903855
1311877817.284650 0.407114 9.471380 -1.903855
1311877817.285744 0.407114 9.471380 -1.903855
1311877817.288778 0.227505 9.471380 -1.832012
1311877817.289899 0.227505 9.471380 -1.832012
1311877817.293506 -0.347244 9.136110 -1.353054
1311877817.294521 -0.347244 9.136110 -1.353054
1311877817.297769 0.502905 9.279797 -1.257263
1311877817.298753 0.502905 9.279797 -1.257263
1311877817.300381 0.502905 9.279797 -1.257263
1311877817.303642 0.502905 9.279797 -1.736220
1311877817.304628 0.502905 9.279797 -1.736220
1311877817.307810 0.023948 9.279797 -1.556611
1311877817.308771 0.023948 9.279797 -1.556611
1311877817.312428 0.371192 9.184006 -1.161471
1311877817.313508 0.371192 9.184006 -1.161471
1311877817.314791 0.371192 9.184006 -1.161471
1311877817.317883 0.371192 9.088214 -1.736220
1311877817.318880 0.371192 9.088214 -1.736220
1311877817.322533 0.455009 9.471380 -1.927803
1311877817.323489 0.455009 9.471380 -1.927803
1311877817.324757 0.455009 9.471380 -1.927803
1311877817.325759 0.455009 9.471380 -1.927803
1311877817.328915 0.227505 9.279797 -1.544637
1311877817.329876 0.227505 9.279797 -1.544637
1311877817.333506 0.227505 9.279797 -1.544637
1311877817.334494 0.227505 9.279797 -1.544637
1311877817.337762 0.706462 9.471380 -1.640429
1311877817.338749 0.706462 9.471380 -1.640429
1311877817.339875 0.706462 9.471380 -1.640429
1311877817.340994 0.706462 9.471380 -1.640429
1311877817.344638 0.023948 9.279797 -1.640429
1311877817.345651 0.023948 9.279797 -1.640429
1311877817.348924 0.323296 9.279797 -1.353054
1311877817.349871 0.323296 9.279797 -1.353054
1311877817.353542 0.886071 9.279797 -1.257263
1311877817.354516 0.886071 9.279797 -1.257263
1311877817.357770 0.407114 9.100188 -1.448846
1311877817.358755 0.407114 9.100188 -1.448846
1311877817.360034 0.407114 9.100188 -1.448846
1311877817.361023 0.407114 9.100188 -1.448846
1311877817.364522 0.407114 9.184006 -1.353054
1311877817.365782 0.407114 9.184006 -1.353054
1311877817.368917 0.407114 9.088214 -1.448846
1311877817.370105 0.407114 9.088214 -1.448846
1311877817.373538 0.323296 9.184006 -1.544637
1311877817.374504 0.323296 9.184006 -1.544637
1311877817.377663 0.407114 9.662963 -1.520689
1311877817.378755 0.407114 9.662963 -1.520689
1311877817.380015 0.407114 9.662963 -1.520689
1311877817.381017 0.407114 9.662963 -1.520689
1311877817.384521 -0.167635 9.423484 -1.736220
1311877817.385638 -0.167635 9.423484 -1.736220
1311877817.388911 0.323296 9.471380 -1.879907
1311877817.389888 0.323296 9.471380 -1.879907
1311877817.393506 0.598697 9.519276 -1.640429
1311877817.394493 0.598697 9.519276 -1.640429
1311877817.397768 0.047896 9.471380 -1.544637
1311877817.398838 0.047896 9.471380 -1.544637
1311877817.402420 0.227505 9.471380 -1.257263
1311877817.403524 0.227505 9.471380 -1.257263
1311877817.404643 0.227505 9.471380 -1.257263
1311877817.405755 0.227505 9.471380 -1.257263
1311877817.408896 0.790279 9.136110 -1.736220
1311877817.409906 0.790279 9.136110 -1.736220
1311877817.413512 0.407114 9.088214 -1.544637
1311877817.414492 0.407114 9.088214 -1.544637
1311877817.417881 0.419088 9.279797 -1.161471
1311877817.418864 0.419088 9.279797 -1.161471
1311877817.422527 0.407114 9.088214 -1.353054
1311877817.423509 0.407114 9.088214 -1.353054
1311877817.424645 0.407114 9.088214 -1.353054
1311877817.425762 0.407114 9.088214 -1.353054
1311877817.428892 0.407114 9.088214 -1.736220
1311877817.429881 0.407114 9.088214 -1.736220
1311877817.433507 0.407114 9.471380 -1.353054
1311877817.434523 0.407114 9.471380 -1.353054
1311877817.437794 -0.011974 9.279797 -1.173445
1311877817.438910 -0.011974 9.279797 -1.173445
1311877817.442541 0.119739 9.471380 -1.544637
1311877817.443465 0.119739 9.471380 -1.544637
1311877817.444671 0.119739 9.471380 -1.544637
1311877817.445813 0.119739 9.471380 -1.544637
1311877817.449251 0.598697 9.567171 -1.927803
1311877817.452517 0.227505 9.471380 -1.257263
1311877817.453635 0.227505 9.471380 -1.257263
1311877817.454760 0.227505 9.471380 -1.257263
1311877817.455784 0.227505 9.471380 -1.257263
1311877817.458874 0.119739 9.471380 -1.113576
1311877817.459865 0.119739 9.471380 -1.113576
1311877817.463633 0.598697 8.800840 -1.544637
1311877817.464660 0.598697 8.800840 -1.544637
1311877817.468367 0.407114 9.088214 -1.736220
1311877817.469370 0.407114 9.088214 -1.736220
1311877817.472591 0.119739 9.184006 -1.448846
1311877817.473512 0.119739 9.184006 -1.448846
1311877817.474900 0.119739 9.184006 -1.448846
1311877817.475777 0.119739 9.184006 -1.448846
1311877817.478885 0.119739 9.279797 -1.544637
1311877817.479891 0.119739 9.279797 -1.544637
1311877817.483500 0.407114 9.471380 -2.023594
1311877817.484524 0.407114 9.471380 -2.023594
1311877817.487743 0.071844 9.471380 -2.215177
1311877817.488743 0.071844 9.471380 -2.215177
1311877817.492381 -0.359218 9.495328 -1.736220
1311877817.493486 -0.359218 9.495328 -1.736220
1311877817.494751 -0.359218 9.495328 -1.736220
1311877817.495766 -0.359218 9.495328 -1.736220
1311877817.499018 0.706462 9.519276 -1.161471
1311877817.500011 0.706462 9.519276 -1.161471
1311877817.503645 0.227505 9.447432 -1.927803
1311877817.504787 0.227505 9.447432 -1.927803
1311877817.507808 0.071844 9.184006 -1.736220
1311877817.508785 0.071844 9.184006 -1.736220
1311877817.512528 0.407114 9.279797 -1.209367
1311877817.513492 0.407114 9.279797 -1.209367
1311877817.514627 0.407114 9.279797 -1.209367
1311877817.515766 0.407114 9.279797 -1.209367
1311877817.518868 0.023948 9.088214 -1.353054
1311877817.520009 0.023948 9.088214 -1.353054
1311877817.523507 0.395140 9.279797 -1.640429
1311877817.524486 0.395140 9.279797 -1.640429
1311877817.527761 0.227505 9.279797 -1.832012
1311877817.528743 0.227505 9.279797 -1.832012
1311877817.532386 -0.311322 9.279797 -1.544637
1311877817.535112 -0.311322 9.279797 -1.544637
1311877817.537046 0.119739 9.662963 -1.544637
1311877817.538402 0.119739 9.662963 -1.544637
1311877817.539952 0.119739 9.662963 -1.544637
1311877817.543020 0.227505 9.471380 -1.975699
1311877817.543990 0.227505 9.471380 -1.975699
1311877817.544998 0.227505 9.471380 -1.975699
1311877817.548642 0.227505 9.471380 -1.544637
1311877817.549761 0.227505 9.471380 -1.544637
1311877817.552873 0.323296 9.375588 -1.257263
1311877817.553772 0.323296 9.375588 -1.257263
1311877817.557381 0.023948 9.088214 -1.353054
1311877817.558391 0.023948 9.088214 -1.353054
1311877817.559639 0.023948 9.088214 -1.353054
1311877817.560642 0.023948 9.088214 -1.353054
1311877817.563903 0.598697 9.088214 -1.544637
1311877817.564888 0.598697 9.088214 -1.544637
