# accelerometer data
# file: 'rgbd_dataset_freiburg2_pioneer_slam.bag'
# timestamp ax ay az
1311878193.602737 0.323296 9.471380 -1.544637
1311878193.606273 0.047896 9.279797 -1.736220
1311878193.607374 0.047896 9.279797 -1.736220
1311878193.610662 0.407114 9.375588 -1.448846
1311878193.611652 0.407114 9.375588 -1.448846
1311878193.612916 0.407114 9.375588 -1.448846
1311878193.613885 0.407114 9.375588 -1.448846
1311878193.617378 0.323296 9.279797 -1.353054
1311878193.618514 0.323296 9.279797 -1.353054
1311878193.621768 0.227505 9.279797 -1.736220
1311878193.622764 0.227505 9.279797 -1.736220
1311878193.626395 0.419088 9.471380 -1.448846
1311878193.627380 0.419088 9.471380 -1.448846
1311878193.630641 0.119739 9.279797 -1.544637
1311878193.631772 0.119739 9.279797 -1.544637
1311878193.635254 0.227505 9.279797 -1.173445
1311878193.636396 0.227505 9.279797 -1.173445
1311878193.637516 0.227505 9.279797 -1.173445
1311878193.638638 0.227505 9.279797 -1.173445
1311878193.641790 0.323296 9.459406 -1.496741
1311878193.642766 0.323296 9.459406 -1.496741
1311878193.646415 0.323296 9.184006 -1.544637
1311878193.647429 0.323296 9.184006 -1.544637
1311878193.650644 0.323296 9.471380 -1.448846
1311878193.651650 0.323296 9.471380 -1.448846
1311878193.655254 0.227505 9.279797 -1.353054
1311878193.656273 0.227505 9.279797 -1.353054
1311878193.657483 0.227505 9.279797 -1.353054
1311878193.658511 0.227505 9.279797 -1.353054
1311878193.661774 0.227505 9.375588 -1.544637
1311878193.662766 0.227505 9.375588 -1.544637
1311878193.666407 0.407114 9.471380 -1.544637
1311878193.667425 0.407114 9.471380 -1.544637
1311878193.670643 0.227505 9.375588 -1.544637
1311878193.671633 0.227505 9.375588 -1.544637
1311878193.673151 0.227505 9.375588 -1.544637
1311878193.674288 0.227505 9.375588 -1.544637
1311878193.677499 0.431062 9.471380 -1.544637
1311878193.678513 0.431062 9.471380 -1.544637
1311878193.681763 0.407114 9.447432 -1.257263
1311878193.682764 0.407114 9.447432 -1.257263
1311878193.686396 0.227505 9.136110 -1.496741
1311878193.687360 0.227505 9.136110 -1.496741
1311878193.690628 0.407114 9.459406 -1.544637
1311878193.691640 0.407114 9.459406 -1.544637
1311878193.693147 0.407114 9.459406 -1.544637
1311878193.694279 0.407114 9.459406 -1.544637
1311878193.697484 0.227505 9.184006 -1.544637
1311878193.698516 0.227505 9.184006 -1.544637
1311878193.701768 0.323296 9.279797 -1.640429
1311878193.702762 0.323296 9.279797 -1.640429
1311878193.706399 0.407114 9.471380 -1.353054
1311878193.707390 0.407114 9.471380 -1.353054
1311878193.710640 0.227505 9.375588 -1.448846
1311878193.711643 0.227505 9.375588 -1.448846
1311878193.715267 0.323296 9.375588 -1.736220
1311878193.716265 0.323296 9.375588 -1.736220
1311878193.717496 0.323296 9.375588 -1.736220
1311878193.718488 0.323296 9.375588 -1.736220
1311878193.721786 0.455009 9.459406 -1.544637
1311878193.722752 0.455009 9.459406 -1.544637
1311878193.726396 0.227505 9.279797 -1.544637
1311878193.727446 0.227505 9.279797 -1.544637
1311878193.730505 0.407114 9.423484 -1.544637
1311878193.731657 0.407114 9.423484 -1.544637
1311878193.732763 0.407114 9.423484 -1.544637
1311878193.733912 0.407114 9.423484 -1.544637
1311878193.737386 0.227505 9.184006 -1.556611
1311878193.738515 0.227505 9.184006 -1.556611
1311878193.741637 0.407114 9.279797 -1.544637
1311878193.742629 0.407114 9.279797 -1.544637
1311878193.746240 0.407114 9.471380 -1.520689
1311878193.747360 0.407114 9.471380 -1.520689
1311878193.748370 0.407114 9.471380 -1.520689
1311878193.751607 0.071844 9.279797 -1.544637
1311878193.752620 0.071844 9.279797 -1.544637
1311878193.756266 0.323296 9.279797 -1.544637
1311878193.757263 0.323296 9.279797 -1.544637
1311878193.758385 0.323296 9.279797 -1.544637
1311878193.761628 0.407114 9.423484 -1.448846
1311878193.762766 0.407114 9.423484 -1.448846
1311878193.766397 0.323296 9.279797 -1.640429
1311878193.767263 0.323296 9.279797 -1.640429
1311878193.770501 0.407114 9.375588 -1.544637
1311878193.771649 0.407114 9.375588 -1.544637
1311878193.772902 0.407114 9.375588 -1.544637
1311878193.773898 0.407114 9.375588 -1.544637
1311878193.777358 0.371192 9.375588 -1.353054
1311878193.778515 0.371192 9.375588 -1.353054
1311878193.781746 0.119739 9.279797 -1.544637
1311878193.782762 0.119739 9.279797 -1.544637
1311878193.786395 0.407114 9.471380 -1.257263
1311878193.787369 0.407114 9.471380 -1.257263
1311878193.790773 0.227505 9.279797 -1.544637
1311878193.791760 0.227505 9.279797 -1.544637
1311878193.795257 0.227505 9.136110 -1.496741
1311878193.796390 0.227505 9.136110 -1.496741
1311878193.797480 0.227505 9.136110 -1.496741
1311878193.798627 0.227505 9.136110 -1.496741
1311878193.801770 0.407114 9.471380 -1.448846
1311878193.802767 0.407114 9.471380 -1.448846
1311878193.806382 0.227505 9.279797 -1.448846
1311878193.807390 0.227505 9.279797 -1.448846
1311878193.810514 0.455009 9.423484 -1.496741
1311878193.811641 0.455009 9.423484 -1.496741
1311878193.812755 0.455009 9.423484 -1.496741
1311878193.813785 0.455009 9.423484 -1.496741
1311878193.817360 0.323296 9.184006 -1.353054
1311878193.818489 0.323296 9.184006 -1.353054
1311878193.821743 0.119739 9.279797 -1.544637
1311878193.822736 0.119739 9.279797 -1.544637
1311878193.826378 0.407114 9.447432 -1.353054
1311878193.827357 0.407114 9.447432 -1.353054
1311878193.830502 0.119739 9.279797 -1.448846
1311878193.831653 0.119739 9.279797 -1.448846
1311878193.832761 0.119739 9.279797 -1.448846
1311878193.833915 0.119739 9.279797 -1.448846
1311878193.837367 0.407114 9.471380 -1.448846
1311878193.838536 0.407114 9.471380 -1.448846
1311878193.841784 0.407114 9.279797 -1.257263
1311878193.842757 0.407114 9.279797 -1.257263
1311878193.846391 0.227505 9.184006 -1.544637
1311878193.847386 0.227505 9.184006 -1.544637
1311878193.850632 0.407114 9.471380 -1.353054
1311878193.851630 0.407114 9.471380 -1.353054
1311878193.855263 0.371192 9.459406 -1.544637
1311878193.856413 0.371192 9.459406 -1.544637
1311878193.857495 0.371192 9.459406 -1.544637
1311878193.858641 0.371192 9.459406 -1.544637
1311878193.861626 0.227505 9.279797 -1.448846
1311878193.862760 0.227505 9.279797 -1.448846
1311878193.866382 0.371192 9.471380 -1.353054
1311878193.867388 0.371192 9.471380 -1.353054
1311878193.870509 0.371192 9.279797 -1.544637
1311878193.871638 0.371192 9.279797 -1.544637
1311878193.872892 0.371192 9.279797 -1.544637
1311878193.873913 0.371192 9.279797 -1.544637
1311878193.877365 0.323296 9.447432 -1.353054
1311878193.878516 0.323296 9.447432 -1.353054
1311878193.881737 0.407114 9.279797 -1.209367
1311878193.882748 0.407114 9.279797 -1.209367
1311878193.886383 0.227505 9.136110 -1.544637
1311878193.887372 0.227505 9.136110 -1.544637
1311878193.890779 0.598697 9.279797 -1.353054
1311878193.891635 0.598697 9.279797 -1.353054
1311878193.895257 0.455009 9.471380 -1.257263
1311878193.896415 0.455009 9.471380 -1.257263
1311878193.897515 0.455009 9.471380 -1.257263
1311878193.898638 0.455009 9.471380 -1.257263
1311878193.901770 0.323296 9.375588 -1.544637
1311878193.902944 0.323296 9.375588 -1.544637
1311878193.906388 0.419088 9.471380 -1.496741
1311878193.907366 0.419088 9.471380 -1.496741
1311878193.910629 0.323296 9.279797 -1.736220
1311878193.911638 0.323296 9.279797 -1.736220
1311878193.912748 0.323296 9.279797 -1.736220
1311878193.913881 0.323296 9.279797 -1.736220
1311878193.917360 0.371192 9.423484 -1.544637
1311878193.918509 0.371192 9.423484 -1.544637
1311878193.921777 0.323296 9.279797 -1.496741
1311878193.922881 0.323296 9.279797 -1.496741
1311878193.926389 0.323296 9.279797 -1.544637
1311878193.927358 0.323296 9.279797 -1.544637
1311878193.930506 0.407114 9.375588 -1.448846
1311878193.931634 0.407114 9.375588 -1.448846
1311878193.932885 0.407114 9.375588 -1.448846
1311878193.933887 0.407114 9.375588 -1.448846
1311878193.937386 0.323296 9.423484 -1.353054
1311878193.938520 0.323296 9.423484 -1.353054
1311878193.941764 0.323296 9.279797 -1.532663
1311878193.942749 0.323296 9.279797 -1.532663
1311878193.946374 0.407114 9.471380 -1.257263
1311878193.947385 0.407114 9.471380 -1.257263
1311878193.950634 0.227505 9.184006 -1.448846
1311878193.951761 0.227505 9.184006 -1.448846
1311878193.955264 0.323296 9.112162 -1.448846
1311878193.956385 0.323296 9.112162 -1.448846
1311878193.957486 0.323296 9.112162 -1.448846
1311878193.958483 0.323296 9.112162 -1.448846
1311878193.961634 0.431062 9.471380 -1.353054
1311878193.962888 0.431062 9.471380 -1.353054
1311878193.966386 0.227505 9.279797 -1.353054
1311878193.967383 0.227505 9.279797 -1.353054
1311878193.970647 0.407114 9.423484 -1.448846
1311878193.971655 0.407114 9.423484 -1.448846
1311878193.972763 0.407114 9.423484 -1.448846
1311878193.973902 0.407114 9.423484 -1.448846
1311878193.977395 0.323296 9.112162 -1.448846
1311878193.978510 0.323296 9.112162 -1.448846
1311878193.981740 0.323296 9.184006 -1.544637
1311878193.982763 0.323296 9.184006 -1.544637
1311878193.986387 0.502905 9.471380 -1.448846
1311878193.987363 0.502905 9.471380 -1.448846
1311878193.990632 0.407114 9.184006 -1.257263
1311878193.991625 0.407114 9.184006 -1.257263
1311878193.992876 0.407114 9.184006 -1.257263
1311878193.993874 0.407114 9.184006 -1.257263
1311878193.997388 0.407114 9.279797 -1.353054
1311878193.998498 0.407114 9.279797 -1.353054
1311878194.001766 0.407114 9.471380 -1.353054
1311878194.002759 0.407114 9.471380 -1.353054
1311878194.006398 0.323296 9.279797 -1.544637
1311878194.007366 0.323296 9.279797 -1.544637
1311878194.010508 0.407114 9.279797 -1.544637
1311878194.011635 0.407114 9.279797 -1.544637
1311878194.012760 0.407114 9.279797 -1.544637
1311878194.013890 0.407114 9.279797 -1.544637
1311878194.017385 0.227505 9.136110 -1.544637
1311878194.018551 0.227505 9.136110 -1.544637
1311878194.021620 0.371192 9.279797 -1.353054
1311878194.022739 0.371192 9.279797 -1.353054
1311878194.026382 0.323296 9.471380 -1.353054
1311878194.027351 0.323296 9.471380 -1.353054
1311878194.030505 0.227505 9.279797 -1.544637
1311878194.031632 0.227505 9.279797 -1.544637
1311878194.032883 0.227505 9.279797 -1.544637
1311878194.033934 0.227505 9.279797 -1.544637
1311878194.037396 0.371192 9.423484 -1.353054
1311878194.038536 0.371192 9.423484 -1.353054
1311878194.041610 0.407114 9.471380 -1.544637
1311878194.042742 0.407114 9.471380 -1.544637
1311878194.046396 0.119739 9.136110 -1.544637
1311878194.047476 0.119739 9.136110 -1.544637
1311878194.050682 0.227505 9.184006 -1.544637
1311878194.051635 0.227505 9.184006 -1.544637
1311878194.052725 0.227505 9.184006 -1.544637
1311878194.053912 0.227505 9.184006 -1.544637
1311878194.057360 0.323296 9.447432 -1.448846
1311878194.058477 0.323296 9.447432 -1.448846
1311878194.061626 0.227505 9.184006 -1.592533
1311878194.062764 0.227505 9.184006 -1.592533
1311878194.066390 0.407114 9.471380 -1.448846
1311878194.067361 0.407114 9.471380 -1.448846
1311878194.070636 0.407114 9.375588 -1.257263
1311878194.071624 0.407114 9.375588 -1.257263
1311878194.073141 0.407114 9.375588 -1.257263
1311878194.076388 0.323296 9.471380 -1.496741
1311878194.077359 0.323296 9.471380 -1.496741
1311878194.080621 0.407114 9.471380 -1.544637
1311878194.081600 0.407114 9.471380 -1.544637
1311878194.083249 0.407114 9.471380 -1.544637
1311878194.085737 0.227505 9.184006 -1.544637
1311878194.086739 0.227505 9.184006 -1.544637
1311878194.090379 0.323296 9.423484 -1.544637
1311878194.091478 0.323296 9.423484 -1.544637
1311878194.092733 0.323296 9.423484 -1.544637
1311878194.093603 0.323296 9.423484 -1.544637
1311878194.096777 0.395140 9.375588 -1.544637
1311878194.097611 0.395140 9.375588 -1.544637
1311878194.101250 0.227505 9.088214 -1.556611
1311878194.102387 0.227505 9.088214 -1.556611
1311878194.105499 0.407114 9.471380 -1.592533
1311878194.106633 0.407114 9.471380 -1.592533
1311878194.107757 0.407114 9.471380 -1.592533
1311878194.108760 0.407114 9.471380 -1.592533
1311878194.112504 0.227505 9.184006 -1.592533
1311878194.113385 0.227505 9.184006 -1.592533
1311878194.116641 0.323296 9.375588 -1.544637
1311878194.117624 0.323296 9.375588 -1.544637
1311878194.121031 0.407114 9.471380 -1.592533
1311878194.122277 0.407114 9.471380 -1.592533
1311878194.125505 0.323296 9.279797 -1.736220
1311878194.126622 0.323296 9.279797 -1.736220
1311878194.127940 0.323296 9.279797 -1.736220
1311878194.131238 0.407114 9.471380 -1.568585
1311878194.132378 0.407114 9.471380 -1.568585
1311878194.135512 0.407114 9.471380 -1.544637
1311878194.136509 0.407114 9.471380 -1.544637
1311878194.137751 0.407114 9.471380 -1.544637
1311878194.138760 0.407114 9.471380 -1.544637
1311878194.142367 0.119739 9.279797 -1.568585
1311878194.143406 0.119739 9.279797 -1.568585
1311878194.146630 0.502905 9.471380 -1.544637
1311878194.147606 0.502905 9.471380 -1.544637
1311878194.150778 0.323296 9.279797 -1.520689
1311878194.151632 0.323296 9.279797 -1.520689
1311878194.155243 0.227505 9.279797 -1.544637
1311878194.156227 0.227505 9.279797 -1.544637
1311878194.157475 0.227505 9.279797 -1.544637
1311878194.158494 0.227505 9.279797 -1.544637
1311878194.161746 0.407114 9.471380 -1.544637
1311878194.162760 0.407114 9.471380 -1.544637
1311878194.166355 0.227505 9.279797 -1.544637
1311878194.167356 0.227505 9.279797 -1.544637
1311878194.170614 0.407114 9.459406 -1.353054
1311878194.171609 0.407114 9.459406 -1.353054
1311878194.172862 0.407114 9.459406 -1.353054
1311878194.173864 0.407114 9.459406 -1.353054
1311878194.177497 0.407114 9.279797 -1.544637
1311878194.178620 0.407114 9.279797 -1.544637
1311878194.182475 0.227505 9.136110 -1.448846
1311878194.185261 0.407114 9.471380 -1.448846
1311878194.186239 0.407114 9.471380 -1.448846
1311878194.188969 0.407114 9.471380 -1.448846
1311878194.190660 0.323296 9.279797 -1.544637
1311878194.191748 0.323296 9.279797 -1.544637
1311878194.195393 0.071844 9.184006 -1.448846
1311878194.196231 0.071844 9.184006 -1.448846
1311878194.197611 0.071844 9.184006 -1.448846
1311878194.198623 0.071844 9.184006 -1.448846
1311878194.201631 0.407114 9.375588 -1.544637
1311878194.202846 0.407114 9.375588 -1.544637
1311878194.206282 0.119739 9.279797 -1.544637
1311878194.207402 0.119739 9.279797 -1.544637
1311878194.210480 0.407114 9.375588 -1.544637
1311878194.211489 0.407114 9.375588 -1.544637
1311878194.212873 0.407114 9.375588 -1.544637
1311878194.213754 0.407114 9.375588 -1.544637
1311878194.217366 0.407114 9.279797 -1.544637
1311878194.218343 0.407114 9.279797 -1.544637
1311878194.221641 0.227505 9.136110 -1.448846
1311878194.222617 0.227505 9.136110 -1.448846
1311878194.226244 0.502905 9.471380 -1.353054
1311878194.227369 0.502905 9.471380 -1.353054
1311878194.228373 0.502905 9.471380 -1.353054
1311878194.231755 0.323296 9.279797 -1.448846
1311878194.232731 0.323296 9.279797 -1.448846
1311878194.236268 0.227505 9.375588 -1.544637
1311878194.237315 0.227505 9.375588 -1.544637
1311878194.240492 0.407114 9.471380 -1.353054
1311878194.241481 0.407114 9.471380 -1.353054
1311878194.242768 0.407114 9.471380 -1.353054
1311878194.243999 0.407114 9.471380 -1.353054
1311878194.247510 0.119739 9.279797 -1.736220
1311878194.248487 0.119739 9.279797 -1.736220
1311878194.251754 0.395140 9.375588 -1.640429
1311878194.252862 0.395140 9.375588 -1.640429
1311878194.256352 0.407114 9.279797 -1.353054
1311878194.257346 0.407114 9.279797 -1.353054
1311878194.260631 0.227505 9.136110 -1.568585
1311878194.261619 0.227505 9.136110 -1.568585
1311878194.265251 0.407114 9.447432 -1.544637
1311878194.266367 0.407114 9.447432 -1.544637
1311878194.267756 0.407114 9.447432 -1.544637
1311878194.270670 0.227505 9.279797 -1.353054
1311878194.271627 0.227505 9.279797 -1.353054
1311878194.275240 0.227505 9.088214 -1.544637
1311878194.276276 0.227505 9.088214 -1.544637
1311878194.277483 0.227505 9.088214 -1.544637
1311878194.278606 0.227505 9.088214 -1.544637
1311878194.281784 0.407114 9.375588 -1.353054
1311878194.282871 0.407114 9.375588 -1.353054
1311878194.286391 0.227505 9.279797 -1.544637
1311878194.287367 0.227505 9.279797 -1.544637
1311878194.290644 0.227505 9.423484 -1.556611
1311878194.292074 0.227505 9.423484 -1.556611
1311878194.294854 0.407114 9.471380 -1.556611
1311878194.296249 0.407114 9.471380 -1.556611
1311878194.297369 0.407114 9.471380 -1.556611
1311878194.298498 0.407114 9.471380 -1.556611
1311878194.301641 0.119739 9.136110 -1.544637
1311878194.302733 0.119739 9.136110 -1.544637
1311878194.306301 0.419088 9.519276 -1.544637
1311878194.307403 0.419088 9.519276 -1.544637
1311878194.310770 0.323296 9.375588 -1.640429
1311878194.311799 0.323296 9.375588 -1.640429
1311878194.312948 0.323296 9.375588 -1.640429
1311878194.316367 0.371192 9.279797 -1.520689
1311878194.317337 0.371192 9.279797 -1.520689
1311878194.320595 0.407114 9.471380 -1.209367
1311878194.321595 0.407114 9.471380 -1.209367
1311878194.325354 0.227505 9.136110 -1.448846
1311878194.326415 0.227505 9.136110 -1.448846
1311878194.327602 0.227505 9.136110 -1.448846
1311878194.328971 0.227505 9.136110 -1.448846
1311878194.331856 0.419088 9.375588 -1.257263
1311878194.332854 0.419088 9.375588 -1.257263
1311878194.336360 0.407114 9.459406 -1.353054
1311878194.337381 0.407114 9.459406 -1.353054
1311878194.340630 0.371192 9.279797 -1.736220
1311878194.341616 0.371192 9.279797 -1.736220
1311878194.345407 0.407114 9.471380 -1.520689
1311878194.346408 0.407114 9.471380 -1.520689
1311878194.347498 0.407114 9.471380 -1.520689
1311878194.348627 0.407114 9.471380 -1.520689
1311878194.351871 0.227505 9.279797 -1.736220
1311878194.352865 0.227505 9.279797 -1.736220
1311878194.356356 0.323296 9.279797 -1.544637
1311878194.357348 0.323296 9.279797 -1.544637
1311878194.360610 0.455009 9.471380 -1.353054
1311878194.361625 0.455009 9.471380 -1.353054
1311878194.365237 0.323296 9.279797 -1.353054
1311878194.366379 0.323296 9.279797 -1.353054
1311878194.367376 0.323296 9.279797 -1.353054
1311878194.370658 0.419088 9.447432 -1.544637
1311878194.371591 0.419088 9.447432 -1.544637
1311878194.375234 0.502905 9.447432 -1.448846
1311878194.376244 0.502905 9.447432 -1.448846
1311878194.377468 0.502905 9.447432 -1.448846
1311878194.378501 0.502905 9.447432 -1.448846
1311878194.381748 0.227505 9.279797 -1.592533
1311878194.382742 0.227505 9.279797 -1.592533
1311878194.386376 0.407114 9.471380 -1.556611
1311878194.387336 0.407114 9.471380 -1.556611
1311878194.390493 0.227505 9.471380 -1.544637
1311878194.391523 0.227505 9.471380 -1.544637
1311878194.392752 0.227505 9.471380 -1.544637
1311878194.393717 0.227505 9.471380 -1.544637
1311878194.397370 0.323296 9.447432 -1.496741
1311878194.398347 0.323296 9.447432 -1.496741
1311878194.401619 0.407114 9.471380 -1.544637
1311878194.402707 0.407114 9.471380 -1.544637
1311878194.405896 0.119739 9.184006 -1.544637
1311878194.407278 0.119739 9.184006 -1.544637
1311878194.410508 0.407114 9.375588 -1.520689
1311878194.411631 0.407114 9.375588 -1.520689
1311878194.412849 0.407114 9.375588 -1.520689
1311878194.413846 0.407114 9.375588 -1.520689
1311878194.417384 0.407114 9.279797 -1.257263
1311878194.418500 0.407114 9.279797 -1.257263
1311878194.421602 0.119739 9.088214 -1.496741
1311878194.422739 0.119739 9.088214 -1.496741
1311878194.426377 0.455009 9.471380 -1.353054
1311878194.427343 0.455009 9.471380 -1.353054
1311878194.430611 0.227505 9.136110 -1.544637
1311878194.431613 0.227505 9.136110 -1.544637
1311878194.432869 0.227505 9.136110 -1.544637
1311878194.433861 0.227505 9.136110 -1.544637
1311878194.437498 0.407114 9.471380 -1.353054
1311878194.438744 0.407114 9.471380 -1.353054
1311878194.441609 0.407114 9.375588 -1.448846
1311878194.442734 0.407114 9.375588 -1.448846
1311878194.446455 0.227505 9.136110 -1.353054
1311878194.447561 0.227505 9.136110 -1.353054
1311878194.448520 0.227505 9.136110 -1.353054
1311878194.451720 0.395140 9.471380 -1.448846
1311878194.452724 0.395140 9.471380 -1.448846
1311878194.456267 0.407114 9.375588 -1.353054
1311878194.457350 0.407114 9.375588 -1.353054
1311878194.460601 0.227505 9.184006 -1.736220
1311878194.461599 0.227505 9.184006 -1.736220
1311878194.465277 0.407114 9.471380 -1.496741
1311878194.466406 0.407114 9.471380 -1.496741
1311878194.467499 0.407114 9.471380 -1.496741
1311878194.468631 0.407114 9.471380 -1.496741
1311878194.471782 0.323296 9.184006 -1.544637
1311878194.472752 0.323296 9.184006 -1.544637
1311878194.476367 0.407114 9.375588 -1.353054
1311878194.477409 0.407114 9.375588 -1.353054
1311878194.480621 0.419088 9.471380 -1.353054
1311878194.481646 0.419088 9.471380 -1.353054
1311878194.483272 0.419088 9.471380 -1.353054
1311878194.486506 0.227505 9.279797 -1.544637
1311878194.487338 0.227505 9.279797 -1.544637
1311878194.490630 0.323296 9.423484 -1.736220
1311878194.491631 0.323296 9.423484 -1.736220
1311878194.495244 0.407114 9.279797 -1.353054
1311878194.496345 0.407114 9.279797 -1.353054
1311878194.497483 0.407114 9.279797 -1.353054
1311878194.498604 0.407114 9.279797 -1.353054
1311878194.501869 0.227505 9.184006 -1.640429
1311878194.502859 0.227505 9.184006 -1.640429
1311878194.506377 0.455009 9.471380 -1.353054
1311878194.507703 0.455009 9.471380 -1.353054
1311878194.510614 0.323296 9.279797 -1.520689
1311878194.511637 0.323296 9.279797 -1.520689
1311878194.515282 0.227505 9.184006 -1.448846
1311878194.516644 0.227505 9.184006 -1.448846
1311878194.517616 0.227505 9.184006 -1.448846
1311878194.519445 0.227505 9.184006 -1.448846
1311878194.521870 0.431062 9.423484 -1.353054
1311878194.522748 0.431062 9.423484 -1.353054
1311878194.526395 0.227505 9.184006 -1.544637
1311878194.527346 0.227505 9.184006 -1.544637
1311878194.530621 0.227505 9.459406 -1.496741
1311878194.531753 0.227505 9.459406 -1.496741
1311878194.533269 0.227505 9.459406 -1.496741
1311878194.536385 0.371192 9.459406 -1.448846
1311878194.537358 0.371192 9.459406 -1.448846
1311878194.540619 0.227505 9.184006 -1.640429
1311878194.541620 0.227505 9.184006 -1.640429
1311878194.545362 0.419088 9.375588 -1.209367
1311878194.546517 0.419088 9.375588 -1.209367
1311878194.547598 0.419088 9.375588 -1.209367
1311878194.548721 0.419088 9.375588 -1.209367
1311878194.551751 0.227505 9.136110 -1.353054
1311878194.552717 0.227505 9.136110 -1.353054
1311878194.556466 0.407114 9.184006 -1.520689
1311878194.557341 0.407114 9.184006 -1.520689
1311878194.560606 0.455009 9.459406 -1.448846
1311878194.561740 0.455009 9.459406 -1.448846
1311878194.565235 0.395140 9.136110 -1.544637
1311878194.566356 0.395140 9.136110 -1.544637
1311878194.567492 0.395140 9.136110 -1.544637
1311878194.568486 0.395140 9.136110 -1.544637
1311878194.571731 0.407114 9.471380 -1.544637
1311878194.572722 0.407114 9.471380 -1.544637
1311878194.576230 0.371192 9.459406 -1.544637
1311878194.577376 0.371192 9.459406 -1.544637
1311878194.580630 0.323296 9.112162 -1.496741
1311878194.581603 0.323296 9.112162 -1.496741
1311878194.583230 0.323296 9.112162 -1.496741
1311878194.585871 0.502905 9.471380 -1.257263
1311878194.586839 0.502905 9.471380 -1.257263
1311878194.590375 0.227505 9.279797 -1.353054
1311878194.591489 0.227505 9.279797 -1.353054
1311878194.592590 0.227505 9.279797 -1.353054
1311878194.593717 0.227505 9.279797 -1.353054
1311878194.597486 0.407114 9.375588 -1.448846
1311878194.598347 0.407114 9.375588 -1.448846
1311878194.601502 0.431062 9.471380 -1.353054
1311878194.602864 0.431062 9.471380 -1.353054
1311878194.605613 0.323296 9.088214 -1.353054
1311878194.606607 0.323296 9.088214 -1.353054
1311878194.610325 0.407114 9.279797 -1.544637
1311878194.611358 0.407114 9.279797 -1.544637
1311878194.612511 0.407114 9.279797 -1.544637
1311878194.613529 0.407114 9.279797 -1.544637
1311878194.616743 0.407114 9.279797 -1.353054
1311878194.618239 0.407114 9.279797 -1.353054
1311878194.621387 0.227505 9.088214 -1.544637
1311878194.622376 0.227505 9.088214 -1.544637
1311878194.625610 0.371192 9.112162 -1.448846
1311878194.626588 0.371192 9.112162 -1.448846
1311878194.628219 0.371192 9.112162 -1.448846
1311878194.631822 0.407114 9.136110 -1.353054
1311878194.632995 0.407114 9.136110 -1.353054
1311878194.635617 0.323296 9.184006 -1.173445
1311878194.636642 0.323296 9.184006 -1.173445
1311878194.640237 0.407114 9.375588 -1.353054
1311878194.641217 0.407114 9.375588 -1.353054
1311878194.642491 0.407114 9.375588 -1.353054
1311878194.643504 0.407114 9.375588 -1.353054
1311878194.646859 0.119739 9.375588 -1.544637
1311878194.647843 0.119739 9.375588 -1.544637
1311878194.651342 0.323296 9.471380 -1.209367
1311878194.652329 0.323296 9.471380 -1.209367
1311878194.655599 0.407114 9.471380 -1.520689
1311878194.656762 0.407114 9.471380 -1.520689
1311878194.660369 0.227505 9.375588 -1.951751
1311878194.661339 0.227505 9.375588 -1.951751
1311878194.662611 0.227505 9.375588 -1.951751
1311878194.663615 0.227505 9.375588 -1.951751
1311878194.666761 0.407114 9.662963 -1.640429
1311878194.667868 0.407114 9.662963 -1.640429
1311878194.671376 0.323296 9.375588 -1.544637
1311878194.672340 0.323296 9.375588 -1.544637
1311878194.675618 0.407114 9.279797 -1.736220
1311878194.676589 0.407114 9.279797 -1.736220
1311878194.678205 0.407114 9.279797 -1.736220
1311878194.681375 0.407114 9.471380 -1.640429
1311878194.682372 0.407114 9.471380 -1.640429
1311878194.685600 0.227505 9.184006 -1.640429
1311878194.686578 0.227505 9.184006 -1.640429
1311878194.690259 0.407114 9.279797 -1.592533
1311878194.691350 0.407114 9.279797 -1.592533
1311878194.692524 0.407114 9.279797 -1.592533
1311878194.693494 0.407114 9.279797 -1.592533
1311878194.696728 0.323296 9.375588 -1.568585
1311878194.697595 0.323296 9.375588 -1.568585
1311878194.701348 0.119739 9.184006 -1.544637
1311878194.702340 0.119739 9.184006 -1.544637
1311878194.705498 0.502905 9.471380 -1.257263
1311878194.706614 0.502905 9.471380 -1.257263
1311878194.707870 0.502905 9.471380 -1.257263
1311878194.708882 0.502905 9.471380 -1.257263
1311878194.712458 0.071844 9.184006 -1.185419
1311878194.713479 0.071844 9.184006 -1.185419
1311878194.717947 0.227505 9.423484 -1.353054
1311878194.720241 0.407114 9.471380 -1.257263
1311878194.721440 0.407114 9.471380 -1.257263
1311878194.722388 0.407114 9.471380 -1.257263
1311878194.725620 0.071844 9.184006 -1.161471
1311878194.726622 0.071844 9.184006 -1.161471
1311878194.730067 0.395140 9.423484 -1.209367
1311878194.731243 0.395140 9.423484 -1.209367
1311878194.732499 0.395140 9.423484 -1.209367
1311878194.733643 0.395140 9.423484 -1.209367
1311878194.736916 0.407114 9.279797 -1.353054
1311878194.740256 0.227505 9.088214 -1.544637
1311878194.741236 0.227505 9.088214 -1.544637
1311878194.742516 0.227505 9.088214 -1.544637
1311878194.743659 0.227505 9.088214 -1.544637
1311878194.746950 0.407114 9.471380 -0.969888
1311878194.750372 0.323296 9.184006 -1.161471
1311878194.751329 0.323296 9.184006 -1.161471
1311878194.752594 0.323296 9.184006 -1.161471
1311878194.753582 0.323296 9.184006 -1.161471
1311878194.756741 0.227505 9.375588 -1.544637
1311878194.757840 0.227505 9.375588 -1.544637
1311878194.761504 0.407114 9.471380 -1.353054
1311878194.762975 0.407114 9.471380 -1.353054
1311878194.765597 0.119739 9.184006 -1.173445
1311878194.766734 0.119739 9.184006 -1.173445
1311878194.769897 0.371192 9.279797 -1.161471
1311878194.771239 0.371192 9.279797 -1.161471
1311878194.772489 0.371192 9.279797 -1.161471
1311878194.773469 0.371192 9.279797 -1.161471
1311878194.776609 0.227505 9.447432 -1.257263
1311878194.777726 0.227505 9.447432 -1.257263
1311878194.781358 0.227505 9.279797 -1.544637
1311878194.782360 0.227505 9.279797 -1.544637
1311878194.785715 0.407114 9.471380 -1.161471
1311878194.786704 0.407114 9.471380 -1.161471
1311878194.790298 0.227505 9.279797 -1.161471
1311878194.791357 0.227505 9.279797 -1.161471
1311878194.792597 0.227505 9.279797 -1.161471
1311878194.793581 0.227505 9.279797 -1.161471
1311878194.796852 0.371192 9.184006 -1.544637
1311878194.797865 0.371192 9.184006 -1.544637
1311878194.801356 0.407114 9.279797 -1.544637
1311878194.802337 0.407114 9.279797 -1.544637
1311878194.805613 0.071844 9.279797 -1.448846
1311878194.806612 0.071844 9.279797 -1.448846
1311878194.809856 0.227505 9.279797 -1.496741
1311878194.811264 0.227505 9.279797 -1.496741
1311878194.812497 0.227505 9.279797 -1.496741
1311878194.813502 0.227505 9.279797 -1.496741
1311878194.816624 0.407114 9.279797 -1.592533
1311878194.817708 0.407114 9.279797 -1.592533
1311878194.821224 0.227505 9.184006 -1.544637
1311878194.822340 0.227505 9.184006 -1.544637
1311878194.825472 0.598697 9.495328 -1.257263
1311878194.826587 0.598697 9.495328 -1.257263
1311878194.827847 0.598697 9.495328 -1.257263
1311878194.829216 0.598697 9.495328 -1.257263
1311878194.832360 0.227505 9.279797 -1.544637
1311878194.833268 0.227505 9.279797 -1.544637
1311878194.836525 0.407114 9.471380 -1.544637
1311878194.837495 0.407114 9.471380 -1.544637
1311878194.840763 0.598697 9.471380 -1.161471
1311878194.841593 0.598697 9.471380 -1.161471
1311878194.845235 0.227505 9.375588 -1.161471
1311878194.846257 0.227505 9.375588 -1.161471
1311878194.847345 0.227505 9.375588 -1.161471
1311878194.850721 0.395140 9.279797 -1.353054
1311878194.851600 0.395140 9.279797 -1.353054
1311878194.855348 0.407114 9.471380 -1.640429
1311878194.856331 0.407114 9.471380 -1.640429
1311878194.857596 0.407114 9.471380 -1.640429
1311878194.858580 0.407114 9.471380 -1.640429
1311878194.861724 0.227505 9.279797 -1.185419
1311878194.862844 0.227505 9.279797 -1.185419
1311878194.866387 0.407114 9.471380 -1.149497
1311878194.867476 0.407114 9.471380 -1.149497
1311878194.870726 0.227505 9.279797 -1.496741
1311878194.871706 0.227505 9.279797 -1.496741
1311878194.875218 0.023948 9.279797 -1.568585
1311878194.876202 0.023948 9.279797 -1.568585
1311878194.877503 0.023948 9.279797 -1.568585
1311878194.878601 0.023948 9.279797 -1.568585
1311878194.881869 0.407114 9.471380 -1.161471
1311878194.885342 0.047896 9.375588 -1.209367
1311878194.886324 0.047896 9.375588 -1.209367
1311878194.887589 0.047896 9.375588 -1.209367
1311878194.888460 0.047896 9.375588 -1.209367
1311878194.891727 0.227505 9.279797 -1.353054
1311878194.892847 0.227505 9.279797 -1.353054
1311878194.897408 0.407114 9.279797 -1.161471
1311878194.900241 0.407114 9.100188 -1.161471
1311878194.901228 0.407114 9.100188 -1.161471
1311878194.902270 0.407114 9.100188 -1.161471
1311878194.905604 0.407114 9.471380 -1.113576
1311878194.906623 0.407114 9.471380 -1.113576
1311878194.910268 0.227505 9.279797 -1.353054
1311878194.911214 0.227505 9.279797 -1.353054
1311878194.912474 0.227505 9.279797 -1.353054
1311878194.913674 0.227505 9.279797 -1.353054
1311878194.916734 0.407114 9.184006 -1.544637
1311878194.917716 0.407114 9.184006 -1.544637
1311878194.921359 0.407114 8.417674 -0.778306
1311878194.922478 0.407114 8.417674 -0.778306
1311878194.927195 0.598697 8.896631 -0.011974
1311878194.928232 0.598697 8.896631 -0.011974
1311878194.931469 -0.263426 10.189816 -1.065680
1311878194.932466 -0.263426 10.189816 -1.065680
1311878194.936277 0.023948 8.705048 -2.310969
1311878194.937339 0.023948 8.705048 -2.310969
1311878194.938355 0.023948 8.705048 -2.310969
1311878194.941733 0.993836 9.854546 -1.640429
1311878194.942714 0.993836 9.854546 -1.640429
1311878194.946630 0.119739 9.854546 -0.778306
1311878194.947688 0.119739 9.854546 -0.778306
1311878194.950733 -0.359218 9.854546 -1.353054
1311878194.951703 -0.359218 9.854546 -1.353054
1311878194.955611 0.407114 9.184006 -3.268883
1311878194.956587 0.407114 9.184006 -3.268883
1311878194.960344 1.089628 9.854546 -3.268883
1311878194.961377 1.089628 9.854546 -3.268883
1311878194.962588 1.089628 9.854546 -3.268883
1311878194.963774 1.089628 9.854546 -3.268883
1311878194.967357 -0.059870 9.184006 -1.185419
1311878194.968362 -0.059870 9.184006 -1.185419
1311878194.971611 0.119739 9.112162 -1.544637
1311878194.972637 0.119739 9.112162 -1.544637
1311878194.976516 1.185419 9.064266 -2.694135
1311878194.977452 1.185419 9.064266 -2.694135
1311878194.980649 0.754358 9.471380 -2.310969
1311878194.981750 0.754358 9.471380 -2.310969
1311878194.985489 0.802253 9.076240 -0.969888
1311878194.986472 0.802253 9.076240 -0.969888
1311878194.987725 0.802253 9.076240 -0.969888
1311878194.988726 0.802253 9.076240 -0.969888
1311878194.992351 0.323296 9.279797 -0.826201
1311878194.993334 0.323296 9.279797 -0.826201
1311878194.996880 0.598697 8.705048 -1.736220
1311878195.000384 1.089628 9.471380 -1.161471
1311878195.001423 1.089628 9.471380 -1.161471
1311878195.002721 1.089628 9.471380 -1.161471
1311878195.003591 1.089628 9.471380 -1.161471
1311878195.007197 0.071844 9.088214 -0.395140
1311878195.008255 0.071844 9.088214 -0.395140
1311878195.011619 0.023948 9.136110 -0.874097
1311878195.012605 0.023948 9.136110 -0.874097
1311878195.015905 0.706462 9.279797 -1.927803
1311878195.017363 0.706462 9.279797 -1.927803
1311878195.018350 0.706462 9.279797 -1.927803
1311878195.021632 0.119739 9.184006 -1.185419
1311878195.022722 0.119739 9.184006 -1.185419
1311878195.026470 0.023948 9.471380 -0.586723
1311878195.027459 0.023948 9.471380 -0.586723
1311878195.030848 -0.167635 9.375588 -1.161471
1311878195.031884 -0.167635 9.375588 -1.161471
1311878195.035628 0.227505 9.064266 -2.119386
1311878195.036622 0.227505 9.064266 -2.119386
1311878195.037752 0.227505 9.064266 -2.119386
1311878195.038879 0.227505 9.064266 -2.119386
1311878195.042485 0.419088 9.758754 -1.353054
1311878195.043602 0.419088 9.758754 -1.353054
1311878195.046725 -0.347244 9.459406 -1.113576
1311878195.047843 -0.347244 9.459406 -1.113576
1311878195.051494 -0.167635 9.184006 -1.640429
1311878195.052467 -0.167635 9.184006 -1.640429
1311878195.055757 0.407114 9.495328 -2.215177
1311878195.056735 0.407114 9.495328 -2.215177
1311878195.060503 0.023948 9.471380 -1.544637
1311878195.061363 0.023948 9.471380 -1.544637
1311878195.062738 0.023948 9.471380 -1.544637
1311878195.063704 0.023948 9.471380 -1.544637
1311878195.067394 -0.059870 9.662963 -0.969888
1311878195.068509 -0.059870 9.662963 -0.969888
1311878195.071843 0.035922 9.375588 -1.736220
1311878195.075379 0.023948 9.279797 -2.310969
1311878195.076337 0.023948 9.279797 -2.310969
1311878195.077613 0.023948 9.279797 -2.310969
1311878195.078618 0.023948 9.279797 -2.310969
1311878195.082351 0.395140 9.471380 -0.586723
1311878195.083530 0.395140 9.471380 -0.586723
1311878195.086612 -0.311322 9.279797 -0.778306
1311878195.087708 -0.311322 9.279797 -0.778306
1311878195.091409 0.119739 9.088214 -1.353054
1311878195.092338 0.119739 9.088214 -1.353054
1311878195.095594 0.790279 9.423484 -1.544637
1311878195.096592 0.790279 9.423484 -1.544637
1311878195.097884 0.790279 9.423484 -1.544637
1311878195.099241 0.790279 9.423484 -1.544637
1311878195.102609 0.035922 9.088214 -0.754358
1311878195.103590 0.035922 9.088214 -0.754358
1311878195.106784 0.023948 9.471380 -0.874097
1311878195.107716 0.023948 9.471380 -0.874097
1311878195.111517 0.227505 9.279797 -1.640429
1311878195.112476 0.227505 9.279797 -1.640429
1311878195.115631 0.323296 9.279797 -1.975699
1311878195.116712 0.323296 9.279797 -1.975699
1311878195.120461 0.419088 9.662963 -1.065680
1311878195.121470 0.419088 9.662963 -1.065680
1311878195.122710 0.419088 9.662963 -1.065680
1311878195.123728 0.419088 9.662963 -1.065680
1311878195.127469 -0.167635 9.423484 -1.544637
1311878195.128469 -0.167635 9.423484 -1.544637
1311878195.132133 0.407114 9.279797 -2.215177
1311878195.135219 0.993836 9.471380 -2.119386
1311878195.136342 0.993836 9.471380 -2.119386
1311878195.137479 0.993836 9.471380 -2.119386
1311878195.138477 0.993836 9.471380 -2.119386
1311878195.142251 0.227505 9.423484 -1.065680
1311878195.143227 0.227505 9.423484 -1.065680
1311878195.146841 0.371192 9.375588 -1.209367
1311878195.147754 0.371192 9.375588 -1.209367
1311878195.148882 0.371192 9.375588 -1.209367
1311878195.152668 0.706462 9.184006 -2.215177
1311878195.155590 0.754358 9.279797 -1.927803
1311878195.156589 0.754358 9.279797 -1.927803
1311878195.160470 0.754358 9.662963 -1.161471
1311878195.161457 0.754358 9.662963 -1.161471
1311878195.162721 0.754358 9.662963 -1.161471
1311878195.163725 0.754358 9.662963 -1.161471
1311878195.166874 0.227505 9.184006 -1.544637
1311878195.167706 0.227505 9.184006 -1.544637
1311878195.171512 0.802253 9.088214 -2.119386
1311878195.172473 0.802253 9.088214 -2.119386
1311878195.175756 0.802253 9.471380 -1.568585
1311878195.176736 0.802253 9.471380 -1.568585
1311878195.180434 0.227505 9.279797 -0.778306
1311878195.181476 0.227505 9.279797 -0.778306
1311878195.183047 0.227505 9.279797 -0.778306
1311878195.186229 0.407114 9.375588 -1.257263
1311878195.187219 0.407114 9.375588 -1.257263
1311878195.190606 0.790279 9.136110 -2.023594
1311878195.191710 0.790279 9.136110 -2.023594
1311878195.195376 0.754358 9.279797 -1.879907
1311878195.196327 0.754358 9.279797 -1.879907
1311878195.197584 0.754358 9.279797 -1.879907
1311878195.198721 0.754358 9.279797 -1.879907
1311878195.202228 0.395140 9.459406 -0.586723
1311878195.203235 0.395140 9.459406 -0.586723
1311878195.206607 0.023948 9.184006 -1.353054
1311878195.207592 0.023948 9.184006 -1.353054
1311878195.211514 0.502905 9.088214 -2.119386
1311878195.212622 0.502905 9.088214 -2.119386
1311878195.215863 0.598697 8.681100 -1.161471
1311878195.216850 0.598697 8.681100 -1.161471
1311878195.220466 0.455009 8.896631 0.359218
1311878195.221450 0.455009 8.896631 0.359218
1311878195.222702 0.455009 8.896631 0.359218
1311878195.223838 0.455009 8.896631 0.359218
1311878195.227467 -0.718436 9.519276 -1.161471
1311878195.228450 -0.718436 9.519276 -1.161471
1311878195.232482 0.227505 8.752944 -2.885718
1311878195.234410 0.227505 8.752944 -2.885718
1311878195.236901 0.802253 9.854546 -2.119386
1311878195.240495 0.119739 10.237712 -0.682514
1311878195.241454 0.119739 10.237712 -0.682514
1311878195.242711 0.119739 10.237712 -0.682514
1311878195.243876 0.119739 10.237712 -0.682514
1311878195.247477 -0.730410 9.567171 -1.736220
1311878195.248589 -0.730410 9.567171 -1.736220
1311878195.252361 0.993836 9.830598 -3.652049
1311878195.253351 0.993836 9.830598 -3.652049
1311878195.256612 0.502905 9.854546 -3.077300
1311878195.257714 0.502905 9.854546 -3.077300
1311878195.261461 0.023948 9.471380 -1.353054
1311878195.262614 0.023948 9.471380 -1.353054
1311878195.265814 0.023948 9.136110 -1.113576
1311878195.266725 0.023948 9.136110 -1.113576
1311878195.270487 0.598697 9.064266 -2.502552
1311878195.271464 0.598697 9.064266 -2.502552
1311878195.272743 0.598697 9.064266 -2.502552
1311878195.273738 0.598697 9.064266 -2.502552
1311878195.277458 0.802253 9.375588 -2.119386
1311878195.278620 0.802253 9.375588 -2.119386
1311878195.282362 0.790279 9.112162 -0.490931
1311878195.283381 0.790279 9.112162 -0.490931
1311878195.286455 0.071844 9.184006 -0.490931
1311878195.287576 0.071844 9.184006 -0.490931
1311878195.290865 0.598697 8.705048 -1.592533
1311878195.292234 0.598697 8.705048 -1.592533
1311878195.295483 0.814227 9.471380 -1.544637
1311878195.296451 0.814227 9.471380 -1.544637
1311878195.297605 0.814227 9.471380 -1.544637
1311878195.298753 0.814227 9.471380 -1.544637
1311878195.302500 0.227505 8.992423 -0.383166
1311878195.303636 0.227505 8.992423 -0.383166
1311878195.306731 0.023948 9.471380 -0.443035
1311878195.307729 0.023948 9.471380 -0.443035
1311878195.311467 0.502905 9.136110 -1.640429
1311878195.312627 0.502905 9.136110 -1.640429
1311878195.315599 0.407114 9.279797 -1.927803
1311878195.316770 0.407114 9.279797 -1.927803
1311878195.320387 0.502905 9.471380 -0.874097
1311878195.321476 0.502905 9.471380 -0.874097
1311878195.322727 0.502905 9.471380 -0.874097
1311878195.323718 0.502905 9.471380 -0.874097
1311878195.327352 -0.347244 9.279797 -1.161471
1311878195.328481 -0.347244 9.279797 -1.161471
1311878195.331834 0.371192 9.136110 -1.927803
1311878195.332845 0.371192 9.136110 -1.927803
1311878195.336489 0.598697 9.471380 -1.640429
1311878195.337481 0.598697 9.471380 -1.640429
1311878195.340593 0.071844 9.279797 -0.969888
1311878195.341717 0.071844 9.279797 -0.969888
1311878195.345219 -0.359218 9.184006 -0.969888
1311878195.346205 -0.359218 9.184006 -0.969888
1311878195.347619 -0.359218 9.184006 -0.969888
1311878195.348594 -0.359218 9.184006 -0.969888
1311878195.352205 0.407114 9.519276 -2.023594
1311878195.355374 0.407114 9.471380 -2.023594
1311878195.356324 0.407114 9.471380 -2.023594
1311878195.357582 0.407114 9.471380 -2.023594
1311878195.358702 0.407114 9.471380 -2.023594
1311878195.361868 0.227505 9.758754 -1.065680
1311878195.363235 0.227505 9.758754 -1.065680
1311878195.366478 0.011974 9.279797 -1.448846
1311878195.367685 0.011974 9.279797 -1.448846
1311878195.370715 0.323296 9.447432 -2.263073
1311878195.371723 0.323296 9.447432 -2.263073
1311878195.375336 0.754358 9.567171 -1.903855
1311878195.376339 0.754358 9.567171 -1.903855
1311878195.377578 0.754358 9.567171 -1.903855
1311878195.378585 0.754358 9.567171 -1.903855
1311878195.381726 0.023948 9.112162 -0.969888
1311878195.383230 0.023948 9.112162 -0.969888
1311878195.386493 0.227505 9.279797 -1.137524
1311878195.387465 0.227505 9.279797 -1.137524
1311878195.390731 0.407114 9.076240 -1.832012
1311878195.391719 0.407114 9.076240 -1.832012
1311878195.395360 0.395140 9.375588 -1.544637
1311878195.396324 0.395140 9.375588 -1.544637
1311878195.397594 0.395140 9.375588 -1.544637
1311878195.398725 0.395140 9.375588 -1.544637
1311878195.402255 0.371192 9.447432 -0.490931
1311878195.405489 -0.167635 9.375588 -1.209367
1311878195.406468 -0.167635 9.375588 -1.209367
1311878195.407714 -0.167635 9.375588 -1.209367
1311878195.408708 -0.167635 9.375588 -1.209367
1311878195.412470 0.598697 9.112162 -1.927803
1311878195.413598 0.598697 9.112162 -1.927803
1311878195.416867 0.754358 9.567171 -1.353054
1311878195.417822 0.754358 9.567171 -1.353054
1311878195.421482 0.023948 9.375588 -0.826201
1311878195.422503 0.023948 9.375588 -0.826201
1311878195.425714 0.071844 9.375588 -1.353054
1311878195.426701 0.071844 9.375588 -1.353054
1311878195.430347 0.455009 9.279797 -1.736220
1311878195.431325 0.455009 9.279797 -1.736220
1311878195.432601 0.455009 9.279797 -1.736220
1311878195.433637 0.455009 9.279797 -1.736220
1311878195.436777 0.227505 9.423484 -1.496741
1311878195.437723 0.227505 9.423484 -1.496741
1311878195.441358 0.227505 9.471380 -0.826201
1311878195.442499 0.227505 9.471380 -0.826201
1311878195.445725 0.023948 9.279797 -1.544637
1311878195.446714 0.023948 9.279797 -1.544637
1311878195.450484 0.407114 9.279797 -2.119386
1311878195.451471 0.407114 9.279797 -2.119386
1311878195.452700 0.407114 9.279797 -2.119386
1311878195.453719 0.407114 9.279797 -2.119386
1311878195.457363 0.598697 9.471380 -1.353054
1311878195.458473 0.598697 9.471380 -1.353054
1311878195.461735 0.119739 9.423484 -1.065680
1311878195.462714 0.119739 9.423484 -1.065680
1311878195.466497 0.227505 9.184006 -1.592533
1311878195.467471 0.227505 9.184006 -1.592533
1311878195.470719 0.598697 9.088214 -2.119386
1311878195.471705 0.598697 9.088214 -2.119386
1311878195.475336 0.455009 9.375588 -1.556611
1311878195.476445 0.455009 9.375588 -1.556611
1311878195.477570 0.455009 9.375588 -1.556611
1311878195.478832 0.455009 9.375588 -1.556611
1311878195.482359 0.227505 9.279797 -0.778306
1311878195.483361 0.227505 9.279797 -0.778306
1311878195.486735 0.227505 9.136110 -1.544637
1311878195.487702 0.227505 9.136110 -1.544637
1311878195.491366 0.431062 9.279797 -1.927803
1311878195.492482 0.431062 9.279797 -1.927803
1311878195.495872 0.598697 9.662963 -1.173445
1311878195.496837 0.598697 9.662963 -1.173445
1311878195.500349 -0.059870 9.423484 -1.113576
1311878195.501462 -0.059870 9.423484 -1.113576
1311878195.502587 -0.059870 9.423484 -1.113576
1311878195.503722 -0.059870 9.423484 -1.113576
1311878195.507098 0.502905 9.184006 -1.879907
1311878195.508208 0.502905 9.184006 -1.879907
1311878195.511621 0.802253 9.423484 -1.975699
1311878195.512604 0.802253 9.423484 -1.975699
1311878195.513618 0.802253 9.423484 -1.975699
1311878195.517351 0.119739 9.375588 -1.065680
1311878195.518456 0.119739 9.375588 -1.065680
1311878195.521583 0.227505 9.519276 -1.161471
1311878195.522741 0.227505 9.519276 -1.161471
1311878195.526491 0.407114 9.112162 -1.903855
1311878195.527533 0.407114 9.112162 -1.903855
1311878195.530584 0.419088 9.136110 -1.927803
1311878195.531587 0.419088 9.136110 -1.927803
1311878195.535364 0.598697 9.471380 -1.113576
1311878195.536472 0.598697 9.471380 -1.113576
1311878195.537609 0.598697 9.471380 -1.113576
1311878195.538709 0.598697 9.471380 -1.113576
1311878195.541736 0.035922 9.279797 -1.353054
1311878195.542705 0.035922 9.279797 -1.353054
1311878195.546542 0.407114 9.375588 -1.927803
1311878195.547634 0.407114 9.375588 -1.927803
1311878195.548598 0.407114 9.375588 -1.927803
1311878195.551735 0.778306 9.279797 -1.903855
1311878195.552701 0.778306 9.279797 -1.903855
1311878195.556478 0.227505 9.375588 -1.137524
1311878195.557459 0.227505 9.375588 -1.137524
1311878195.560612 0.119739 9.471380 -1.065680
1311878195.561734 0.119739 9.471380 -1.065680
1311878195.565486 0.119739 9.184006 -2.023594
1311878195.566478 0.119739 9.184006 -2.023594
1311878195.567570 0.119739 9.184006 -2.023594
1311878195.568697 0.119739 9.184006 -2.023594
1311878195.572015 0.502905 9.471380 -1.736220
1311878195.575354 0.502905 9.495328 -1.065680
1311878195.576410 0.502905 9.495328 -1.065680
1311878195.577604 0.502905 9.495328 -1.065680
1311878195.578715 0.502905 9.495328 -1.065680
1311878195.581736 -0.167635 9.136110 -1.353054
1311878195.582778 -0.167635 9.136110 -1.353054
1311878195.586353 0.407114 9.184006 -1.927803
1311878195.587458 0.407114 9.184006 -1.927803
1311878195.590583 0.598697 9.519276 -1.736220
1311878195.591578 0.598697 9.519276 -1.736220
1311878195.595344 0.023948 9.375588 -1.113576
1311878195.596326 0.023948 9.375588 -1.113576
1311878195.597667 0.023948 9.375588 -1.113576
1311878195.598723 0.023948 9.375588 -1.113576
1311878195.601753 0.323296 9.375588 -1.353054
1311878195.602896 0.323296 9.375588 -1.353054
1311878195.606467 0.431062 9.279797 -2.023594
1311878195.607491 0.431062 9.279797 -2.023594
1311878195.610762 0.502905 9.447432 -1.640429
1311878195.611716 0.502905 9.447432 -1.640429
1311878195.615350 0.455009 9.423484 -1.161471
1311878195.616388 0.455009 9.423484 -1.161471
1311878195.617693 0.455009 9.423484 -1.161471
1311878195.618688 0.455009 9.423484 -1.161471
1311878195.621725 0.023948 9.184006 -1.832012
1311878195.623204 0.023948 9.184006 -1.832012
1311878195.626581 0.502905 9.375588 -2.215177
1311878195.627569 0.502905 9.375588 -2.215177
1311878195.630725 0.598697 9.471380 -1.544637
1311878195.631703 0.598697 9.471380 -1.544637
1311878195.635477 0.323296 9.136110 -1.065680
1311878195.636461 0.323296 9.136110 -1.065680
1311878195.637572 0.323296 9.136110 -1.065680
1311878195.638708 0.323296 9.136110 -1.065680
1311878195.642329 0.407114 9.279797 -1.544637
1311878195.643366 0.407114 9.279797 -1.544637
1311878195.646724 0.598697 9.136110 -1.927803
1311878195.647742 0.598697 9.136110 -1.927803
1311878195.651329 0.598697 9.662963 -1.209367
1311878195.652446 0.598697 9.662963 -1.209367
1311878195.655599 0.227505 9.471380 -0.778306
1311878195.656735 0.227505 9.471380 -0.778306
1311878195.660452 0.023948 9.279797 -1.353054
1311878195.661312 0.023948 9.279797 -1.353054
1311878195.662572 0.023948 9.279797 -1.353054
1311878195.663592 0.023948 9.279797 -1.353054
1311878195.666859 0.431062 9.471380 -1.736220
1311878195.667835 0.431062 9.471380 -1.736220
1311878195.671393 0.395140 9.471380 -1.257263
1311878195.672455 0.395140 9.471380 -1.257263
1311878195.675593 0.023948 9.088214 -1.065680
1311878195.676598 0.023948 9.088214 -1.065680
1311878195.680210 0.227505 9.184006 -1.353054
1311878195.681322 0.227505 9.184006 -1.353054
1311878195.682605 0.227505 9.184006 -1.353054
1311878195.683603 0.227505 9.184006 -1.353054
1311878195.686916 0.395140 9.279797 -1.736220
1311878195.690232 0.407114 9.423484 -1.353054
1311878195.691341 0.407114 9.423484 -1.353054
1311878195.692444 0.407114 9.423484 -1.353054
1311878195.693567 0.407114 9.423484 -1.353054
1311878195.696737 0.227505 9.279797 -1.137524
1311878195.697706 0.227505 9.279797 -1.137524
1311878195.701333 0.023948 9.112162 -1.568585
1311878195.702466 0.023948 9.112162 -1.568585
1311878195.705590 0.407114 9.184006 -1.544637
1311878195.706640 0.407114 9.184006 -1.544637
1311878195.710205 0.419088 9.471380 -1.161471
1311878195.711353 0.419088 9.471380 -1.161471
1311878195.712620 0.419088 9.471380 -1.161471
1311878195.715765 0.011974 9.184006 -0.969888
1311878195.716695 0.011974 9.184006 -0.969888
1311878195.717844 0.011974 9.184006 -0.969888
1311878195.721471 0.323296 9.184006 -1.353054
1311878195.722463 0.323296 9.184006 -1.353054
1311878195.725579 0.407114 9.136110 -1.544637
1311878195.726589 0.407114 9.136110 -1.544637
1311878195.730334 0.227505 9.375588 -1.161471
1311878195.731473 0.227505 9.375588 -1.161471
1311878195.732603 0.227505 9.375588 -1.161471
1311878195.733587 0.227505 9.375588 -1.161471
1311878195.736582 0.023948 9.279797 -1.161471
1311878195.737773 0.023948 9.279797 -1.161471
1311878195.741330 0.227505 9.136110 -1.544637
1311878195.742342 0.227505 9.136110 -1.544637
1311878195.745617 0.227505 9.471380 -1.532663
1311878195.746584 0.227505 9.471380 -1.532663
1311878195.750202 0.407114 9.758754 -1.065680
1311878195.751341 0.407114 9.758754 -1.065680
1311878195.752444 0.407114 9.758754 -1.065680
1311878195.753474 0.407114 9.758754 -1.065680
1311878195.756725 0.011974 9.279797 -1.544637
1311878195.757691 0.011974 9.279797 -1.544637
1311878195.761480 0.407114 9.471380 -1.544637
1311878195.762335 0.407114 9.471380 -1.544637
1311878195.765606 0.395140 9.184006 -1.736220
1311878195.766704 0.395140 9.184006 -1.736220
1311878195.770460 0.407114 9.471380 -1.065680
1311878195.771326 0.407114 9.471380 -1.065680
1311878195.772604 0.407114 9.471380 -1.065680
1311878195.773574 0.407114 9.471380 -1.065680
1311878195.776583 0.323296 9.423484 -0.969888
1311878195.777573 0.323296 9.423484 -0.969888
1311878195.781338 0.023948 8.992423 -1.736220
1311878195.782391 0.023948 8.992423 -1.736220
1311878195.785577 0.407114 9.279797 -1.544637
1311878195.786561 0.407114 9.279797 -1.544637
1311878195.790331 0.598697 9.471380 -1.137524
1311878195.791328 0.598697 9.471380 -1.137524
1311878195.792518 0.598697 9.471380 -1.137524
1311878195.793573 0.598697 9.471380 -1.137524
1311878195.796700 0.227505 9.279797 -1.353054
1311878195.797696 0.227505 9.279797 -1.353054
1311878195.801329 0.419088 9.375588 -1.736220
1311878195.802341 0.419088 9.375588 -1.736220
1311878195.805625 0.598697 9.279797 -1.736220
1311878195.806594 0.598697 9.279797 -1.736220
1311878195.810239 0.407114 9.471380 -1.209367
1311878195.811216 0.407114 9.471380 -1.209367
1311878195.812596 0.407114 9.471380 -1.209367
1311878195.813473 0.407114 9.471380 -1.209367
1311878195.816724 0.407114 9.423484 -1.544637
1311878195.817852 0.407114 9.423484 -1.544637
1311878195.821341 0.431062 9.279797 -1.832012
1311878195.822478 0.431062 9.279797 -1.832012
1311878195.825580 0.407114 9.447432 -1.640429
1311878195.826695 0.407114 9.447432 -1.640429
1311878195.830327 0.598697 9.519276 -1.161471
1311878195.831325 0.598697 9.519276 -1.161471
1311878195.832583 0.598697 9.519276 -1.161471
1311878195.833571 0.598697 9.519276 -1.161471
1311878195.836751 0.323296 9.088214 -1.496741
1311878195.837694 0.323296 9.088214 -1.496741
1311878195.841337 0.598697 9.375588 -1.879907
1311878195.842465 0.598697 9.375588 -1.879907
1311878195.845716 0.598697 9.423484 -1.736220
1311878195.846721 0.598697 9.423484 -1.736220
1311878195.850322 0.407114 9.471380 -1.161471
1311878195.851440 0.407114 9.471380 -1.161471
1311878195.852565 0.407114 9.471380 -1.161471
1311878195.853557 0.407114 9.471380 -1.161471
1311878195.856692 0.407114 9.279797 -1.568585
1311878195.857687 0.407114 9.279797 -1.568585
1311878195.861340 0.323296 8.992423 -1.879907
1311878195.862436 0.323296 8.992423 -1.879907
1311878195.865726 0.754358 9.375588 -1.532663
1311878195.866711 0.754358 9.375588 -1.532663
1311878195.870362 0.502905 9.495328 -1.353054
1311878195.871211 0.502905 9.495328 -1.353054
1311878195.872466 0.502905 9.495328 -1.353054
1311878195.873464 0.502905 9.495328 -1.353054
1311878195.876708 0.227505 9.184006 -1.879907
1311878195.877706 0.227505 9.184006 -1.879907
1311878195.881458 0.706462 9.279797 -1.544637
1311878195.882455 0.706462 9.279797 -1.544637
1311878195.885740 0.598697 9.471380 -1.161471
1311878195.886686 0.598697 9.471380 -1.161471
1311878195.890366 0.227505 9.471380 -0.778306
1311878195.891340 0.227505 9.471380 -0.778306
1311878195.892571 0.227505 9.471380 -0.778306
1311878195.893563 0.227505 9.471380 -0.778306
1311878195.896835 0.419088 9.279797 -1.532663
1311878195.897830 0.419088 9.279797 -1.532663
1311878195.901355 0.407114 9.088214 -1.544637
1311878195.902456 0.407114 9.088214 -1.544637
1311878195.905641 0.407114 9.471380 -1.161471
1311878195.906732 0.407114 9.471380 -1.161471
1311878195.910325 0.323296 9.471380 -0.754358
1311878195.911393 0.323296 9.471380 -0.754358
1311878195.912593 0.323296 9.471380 -0.754358
1311878195.913635 0.323296 9.471380 -0.754358
1311878195.916856 0.227505 9.136110 -1.640429
1311878195.917930 0.227505 9.136110 -1.640429
1311878195.921537 0.455009 9.279797 -1.736220
1311878195.922457 0.455009 9.279797 -1.736220
1311878195.925575 0.023948 9.459406 -1.185419
1311878195.926703 0.023948 9.459406 -1.185419
1311878195.930331 0.071844 9.471380 -0.969888
1311878195.931328 0.071844 9.471380 -0.969888
1311878195.932487 0.071844 9.471380 -0.969888
1311878195.933581 0.071844 9.471380 -0.969888
1311878195.936867 0.407114 9.375588 -1.544637
1311878195.937717 0.407114 9.375588 -1.544637
1311878195.941354 0.047896 9.184006 -1.640429
1311878195.942489 0.047896 9.184006 -1.640429
1311878195.945726 0.407114 9.483354 -0.874097
1311878195.946869 0.407114 9.483354 -0.874097
1311878195.950348 0.323296 9.471380 -0.778306
1311878195.951330 0.323296 9.471380 -0.778306
1311878195.952565 0.323296 9.471380 -0.778306
1311878195.953587 0.323296 9.471380 -0.778306
1311878195.956689 0.407114 9.088214 -1.448846
1311878195.957731 0.407114 9.088214 -1.448846
1311878195.961446 0.323296 9.184006 -1.209367
1311878195.962579 0.323296 9.184006 -1.209367
1311878195.965589 0.323296 9.279797 -1.065680
1311878195.966582 0.323296 9.279797 -1.065680
1311878195.970336 0.407114 9.279797 -0.969888
1311878195.971200 0.407114 9.279797 -0.969888
1311878195.972516 0.407114 9.279797 -0.969888
1311878195.973493 0.407114 9.279797 -0.969888
1311878195.976713 0.227505 9.279797 -1.640429
1311878195.977841 0.227505 9.279797 -1.640429
1311878195.981482 0.227505 9.088214 -1.544637
1311878195.982487 0.227505 9.088214 -1.544637
1311878195.985590 0.323296 9.519276 -1.257263
1311878195.986815 0.323296 9.519276 -1.257263
1311878195.990221 0.023948 9.471380 -1.257263
1311878195.991202 0.023948 9.471380 -1.257263
1311878195.992453 0.023948 9.471380 -1.257263
1311878195.993469 0.023948 9.471380 -1.257263
1311878195.996716 0.227505 9.471380 -1.927803
1311878195.997702 0.227505 9.471380 -1.927803
1311878196.001732 0.455009 9.471380 -1.544637
1311878196.002655 0.455009 9.471380 -1.544637
1311878196.003717 0.455009 9.471380 -1.544637
1311878196.006715 0.227505 9.423484 -1.161471
1311878196.007696 0.227505 9.423484 -1.161471
1311878196.011499 0.407114 9.279797 -1.448846
1311878196.012467 0.407114 9.279797 -1.448846
1311878196.015581 0.598697 9.184006 -1.640429
1311878196.016750 0.598697 9.184006 -1.640429
1311878196.020319 0.407114 9.088214 -1.544637
1311878196.021325 0.407114 9.088214 -1.544637
1311878196.022562 0.407114 9.088214 -1.544637
1311878196.023561 0.407114 9.088214 -1.544637
1311878196.026828 0.502905 9.447432 -1.137524
1311878196.027834 0.502905 9.447432 -1.137524
1311878196.031861 0.407114 9.088214 -1.448846
1311878196.032737 0.407114 9.088214 -1.448846
1311878196.033707 0.407114 9.088214 -1.448846
1311878196.037363 0.323296 9.279797 -1.544637
1311878196.038338 0.323296 9.279797 -1.544637
1311878196.041593 0.431062 9.375588 -1.209367
1311878196.042707 0.431062 9.375588 -1.209367
1311878196.046337 0.323296 9.279797 -1.209367
1311878196.047350 0.323296 9.279797 -1.209367
1311878196.050586 0.407114 9.279797 -1.544637
1311878196.051557 0.407114 9.279797 -1.544637
1311878196.052840 0.407114 9.279797 -1.544637
1311878196.054185 0.407114 9.279797 -1.544637
1311878196.057328 0.407114 9.279797 -1.544637
1311878196.058560 0.407114 9.279797 -1.544637
1311878196.061697 0.227505 9.375588 -1.209367
1311878196.062691 0.227505 9.375588 -1.209367
1311878196.066473 0.407114 9.471380 -1.448846
1311878196.067337 0.407114 9.471380 -1.448846
1311878196.070587 0.407114 9.279797 -1.736220
1311878196.071706 0.407114 9.279797 -1.736220
1311878196.075240 0.227505 9.184006 -1.736220
1311878196.076200 0.227505 9.184006 -1.736220
1311878196.077457 0.227505 9.184006 -1.736220
1311878196.078602 0.227505 9.184006 -1.736220
1311878196.081841 0.407114 9.471380 -1.209367
1311878196.082875 0.407114 9.471380 -1.209367
1311878196.086467 0.119739 9.279797 -1.544637
1311878196.087469 0.119739 9.279797 -1.544637
1311878196.090723 0.227505 9.279797 -2.119386
1311878196.091841 0.227505 9.279797 -2.119386
1311878196.095328 0.502905 9.471380 -1.951751
1311878196.096311 0.502905 9.471380 -1.951751
1311878196.097570 0.502905 9.471380 -1.951751
1311878196.098564 0.502905 9.471380 -1.951751
1311878196.101865 0.119739 9.279797 -1.209367
1311878196.103200 0.119739 9.279797 -1.209367
1311878196.108515 0.323296 9.471380 -1.448846
1311878196.109829 0.227505 9.279797 -1.544637
1311878196.111209 0.227505 9.279797 -1.544637
1311878196.112461 0.227505 9.279797 -1.544637
1311878196.113458 0.227505 9.279797 -1.544637
1311878196.116621 0.227505 9.279797 -1.448846
1311878196.117753 0.227505 9.279797 -1.448846
1311878196.121464 0.323296 9.662963 -0.969888
1311878196.122466 0.323296 9.662963 -0.969888
1311878196.125724 0.227505 9.279797 -1.161471
1311878196.126681 0.227505 9.279797 -1.161471
1311878196.130326 0.323296 9.184006 -1.353054
1311878196.131340 0.323296 9.184006 -1.353054
1311878196.132450 0.323296 9.184006 -1.353054
1311878196.133465 0.323296 9.184006 -1.353054
1311878196.136741 0.395140 9.375588 -1.161471
1311878196.137734 0.395140 9.375588 -1.161471
1311878196.141326 0.023948 9.088214 -1.161471
1311878196.142315 0.023948 9.088214 -1.161471
1311878196.145582 0.323296 9.375588 -1.257263
1311878196.147221 0.323296 9.375588 -1.257263
1311878196.150341 0.455009 9.279797 -1.736220
1311878196.151322 0.455009 9.279797 -1.736220
1311878196.152451 0.455009 9.279797 -1.736220
1311878196.153449 0.455009 9.279797 -1.736220
1311878196.156689 0.407114 9.375588 -1.353054
1311878196.157708 0.407114 9.375588 -1.353054
1311878196.161324 0.407114 9.471380 -1.257263
1311878196.162308 0.407114 9.471380 -1.257263
1311878196.165608 0.371192 9.375588 -1.736220
1311878196.166723 0.371192 9.375588 -1.736220
1311878196.170386 0.419088 9.375588 -1.832012
1311878196.171321 0.419088 9.375588 -1.832012
1311878196.172462 0.419088 9.375588 -1.832012
1311878196.173609 0.419088 9.375588 -1.832012
1311878196.176705 0.706462 9.375588 -1.161471
1311878196.177824 0.706462 9.375588 -1.161471
1311878196.181351 0.371192 9.184006 -1.185419
1311878196.182534 0.371192 9.184006 -1.185419
1311878196.185718 0.598697 9.423484 -1.496741
1311878196.186748 0.598697 9.423484 -1.496741
1311878196.190212 0.790279 9.375588 -1.544637
1311878196.191226 0.790279 9.375588 -1.544637
1311878196.192560 0.790279 9.375588 -1.544637
1311878196.193430 0.790279 9.375588 -1.544637
1311878196.196867 0.323296 9.375588 -1.161471
1311878196.200230 0.407114 9.471380 -1.161471
1311878196.201227 0.407114 9.471380 -1.161471
1311878196.202699 0.407114 9.471380 -1.161471
1311878196.205599 0.407114 9.279797 -1.496741
1311878196.206718 0.407114 9.279797 -1.496741
1311878196.210201 0.407114 9.279797 -1.448846
1311878196.211198 0.407114 9.279797 -1.448846
1311878196.212596 0.407114 9.279797 -1.448846
1311878196.215759 0.598697 9.375588 -0.874097
1311878196.216731 0.598697 9.375588 -0.874097
1311878196.220322 0.119739 9.088214 -1.161471
1311878196.221328 0.119739 9.088214 -1.161471
1311878196.222556 0.119739 9.088214 -1.161471
1311878196.223564 0.119739 9.088214 -1.161471
1311878196.226769 0.502905 9.279797 -1.736220
1311878196.227827 0.502905 9.279797 -1.736220
1311878196.231470 0.407114 9.279797 -1.544637
1311878196.232322 0.407114 9.279797 -1.544637
1311878196.235706 0.047896 9.279797 -1.149497
1311878196.236697 0.047896 9.279797 -1.149497
1311878196.240203 0.407114 9.375588 -1.137524
1311878196.241316 0.407114 9.375588 -1.137524
1311878196.242606 0.407114 9.375588 -1.137524
1311878196.243585 0.407114 9.375588 -1.137524
1311878196.246833 0.407114 9.279797 -1.736220
1311878196.247823 0.407114 9.279797 -1.736220
1311878196.251467 0.227505 9.279797 -1.257263
1311878196.252453 0.227505 9.279797 -1.257263
1311878196.255591 0.455009 9.447432 -0.778306
1311878196.256705 0.455009 9.447432 -0.778306
1311878196.260325 0.431062 9.279797 -1.149497
1311878196.261310 0.431062 9.279797 -1.149497
1311878196.262557 0.431062 9.279797 -1.149497
1311878196.263703 0.431062 9.279797 -1.149497
1311878196.266839 0.419088 9.567171 -1.592533
1311878196.267819 0.419088 9.567171 -1.592533
1311878196.271582 0.431062 9.184006 -1.640429
1311878196.272460 0.431062 9.184006 -1.640429
1311878196.273473 0.431062 9.184006 -1.640429
1311878196.276714 0.227505 9.279797 -1.065680
1311878196.277849 0.227505 9.279797 -1.065680
1311878196.281322 0.323296 9.662963 -0.969888
1311878196.282463 0.323296 9.662963 -0.969888
1311878196.285737 0.227505 9.447432 -1.927803
1311878196.286811 0.227505 9.447432 -1.927803
1311878196.290476 0.227505 9.279797 -2.119386
1311878196.291472 0.227505 9.279797 -2.119386
1311878196.292713 0.227505 9.279797 -2.119386
1311878196.293704 0.227505 9.279797 -2.119386
1311878196.297476 0.371192 9.471380 -0.969888
1311878196.298439 0.371192 9.471380 -0.969888
1311878196.301704 -0.347244 9.471380 -0.778306
1311878196.302734 -0.347244 9.471380 -0.778306
1311878196.306337 0.227505 9.279797 -1.353054
1311878196.307445 0.227505 9.279797 -1.353054
1311878196.310719 0.754358 9.136110 -1.927803
1311878196.311711 0.754358 9.136110 -1.927803
1311878196.315443 0.023948 9.423484 -1.161471
1311878196.316453 0.023948 9.423484 -1.161471
1311878196.317679 0.023948 9.423484 -1.161471
1311878196.318799 0.023948 9.423484 -1.161471
1311878196.322329 0.035922 9.567171 -0.754358
1311878196.323316 0.035922 9.567171 -0.754358
1311878196.326823 0.371192 9.471380 -1.951751
1311878196.327847 0.371192 9.471380 -1.951751
1311878196.331445 0.407114 9.495328 -2.310969
1311878196.332440 0.407114 9.495328 -2.310969
1311878196.335750 0.407114 9.567171 -1.161471
1311878196.336847 0.407114 9.567171 -1.161471
1311878196.340464 -0.347244 9.459406 -0.826201
1311878196.341453 -0.347244 9.459406 -0.826201
1311878196.342691 -0.347244 9.459406 -0.826201
1311878196.343687 -0.347244 9.459406 -0.826201
1311878196.347587 0.598697 9.519276 -2.263073
1311878196.348572 0.598697 9.519276 -2.263073
1311878196.351690 0.706462 9.423484 -2.310969
1311878196.352696 0.706462 9.423484 -2.310969
1311878196.356472 0.023948 9.184006 -1.257263
1311878196.357461 0.023948 9.184006 -1.257263
1311878196.360700 0.407114 9.471380 -0.586723
1311878196.361687 0.407114 9.471380 -0.586723
1311878196.365445 0.407114 9.495328 -1.544637
1311878196.366445 0.407114 9.495328 -1.544637
1311878196.367686 0.407114 9.495328 -1.544637
1311878196.368709 0.407114 9.495328 -1.544637
1311878196.372331 0.706462 9.471380 -1.975699
1311878196.373310 0.706462 9.471380 -1.975699
1311878196.376718 0.407114 9.279797 -0.778306
1311878196.377735 0.407114 9.279797 -0.778306
1311878196.381444 0.502905 9.519276 -0.203557
1311878196.382605 0.502905 9.519276 -0.203557
1311878196.385644 0.407114 9.279797 -0.826201
1311878196.386730 0.407114 9.279797 -0.826201
1311878196.390462 0.502905 9.375588 -1.544637
1311878196.392220 0.502905 9.375588 -1.544637
1311878196.393178 0.502905 9.375588 -1.544637
1311878196.396588 0.407114 8.896631 -0.778306
1311878196.397571 0.407114 8.896631 -0.778306
1311878196.400450 0.407114 9.459406 -0.011974
1311878196.401876 0.407114 9.459406 -0.011974
1311878196.403266 0.407114 9.459406 -0.011974
1311878196.406486 -0.347244 9.423484 -1.065680
1311878196.407445 -0.347244 9.423484 -1.065680
1311878196.410721 0.407114 9.375588 -1.927803
1311878196.411854 0.407114 9.375588 -1.927803
1311878196.415588 0.431062 9.471380 -1.209367
1311878196.416479 0.431062 9.471380 -1.209367
1311878196.417704 0.431062 9.471380 -1.209367
1311878196.418679 0.431062 9.471380 -1.209367
1311878196.422443 -0.443035 9.184006 -0.395140
1311878196.423445 -0.443035 9.184006 -0.395140
1311878196.426784 0.023948 9.495328 -0.874097
1311878196.427847 0.023948 9.495328 -0.874097
1311878196.431580 0.838175 9.279797 -1.927803
1311878196.433316 0.838175 9.279797 -1.927803
1311878196.435701 0.323296 9.279797 -0.969888
1311878196.436848 0.323296 9.279797 -0.969888
1311878196.440446 0.323296 9.184006 0.359218
1311878196.441441 0.323296 9.184006 0.359218
1311878196.442696 0.323296 9.184006 0.359218
1311878196.443705 0.323296 9.184006 0.359218
1311878196.447415 0.227505 9.279797 -0.299348
1311878196.448345 0.227505 9.279797 -0.299348
1311878196.451691 0.502905 8.513465 -1.353054
1311878196.452833 0.502905 8.513465 -1.353054
1311878196.456557 0.993836 9.471380 -0.395140
1311878196.457559 0.993836 9.471380 -0.395140
1311878196.461217 0.227505 8.896631 0.275400
1311878196.462327 0.227505 8.896631 0.275400
1311878196.463335 0.227505 8.896631 0.275400
1311878196.466718 -0.371192 9.471380 -0.490931
1311878196.467571 -0.371192 9.471380 -0.490931
1311878196.471489 0.802253 9.088214 -1.736220
1311878196.472443 0.802253 9.088214 -1.736220
1311878196.475571 0.395140 9.854546 -1.544637
1311878196.476585 0.395140 9.854546 -1.544637
1311878196.480507 -0.730410 9.662963 -0.395140
1311878196.481569 -0.730410 9.662963 -0.395140
1311878196.482827 -0.730410 9.662963 -0.395140
1311878196.483849 -0.730410 9.662963 -0.395140
1311878196.487624 0.023948 9.662963 -1.592533
1311878196.488580 0.023948 9.662963 -1.592533
1311878196.491850 0.993836 9.471380 -2.310969
1311878196.492834 0.993836 9.471380 -2.310969
1311878196.496564 0.323296 9.758754 -1.173445
1311878196.497562 0.323296 9.758754 -1.173445
1311878196.501344 -0.335270 9.136110 -0.395140
1311878196.502325 -0.335270 9.136110 -0.395140
1311878196.505610 0.323296 9.088214 -0.874097
1311878196.506734 0.323296 9.088214 -0.874097
1311878196.510348 1.185419 9.279797 -1.736220
1311878196.511460 1.185419 9.279797 -1.736220
1311878196.512581 1.185419 9.279797 -1.736220
1311878196.514232 1.185419 9.279797 -1.736220
1311878196.517454 0.023948 9.375588 -0.682514
1311878196.518444 0.023948 9.375588 -0.682514
1311878196.521594 0.323296 9.495328 -0.059870
1311878196.522705 0.323296 9.495328 -0.059870
1311878196.526336 0.323296 9.184006 -1.065680
1311878196.527445 0.323296 9.184006 -1.065680
1311878196.530716 0.706462 9.279797 -2.023594
1311878196.531704 0.706462 9.279797 -2.023594
1311878196.535578 0.598697 9.662963 -1.209367
1311878196.536562 0.598697 9.662963 -1.209367
1311878196.537570 0.598697 9.662963 -1.209367
1311878196.541340 0.035922 9.471380 -0.490931
1311878196.542318 0.035922 9.471380 -0.490931
1311878196.545843 0.227505 9.471380 -1.448846
1311878196.546699 0.227505 9.471380 -1.448846
1311878196.550470 0.993836 9.471380 -2.310969
1311878196.551452 0.993836 9.471380 -2.310969
1311878196.552699 0.993836 9.471380 -2.310969
1311878196.553828 0.993836 9.471380 -2.310969
1311878196.557440 0.227505 9.088214 -1.161471
1311878196.558592 0.227505 9.088214 -1.161471
1311878196.561828 0.502905 9.375588 -0.490931
1311878196.562808 0.502905 9.375588 -0.490931
1311878196.566479 0.407114 9.279797 -1.257263
1311878196.567593 0.407114 9.279797 -1.257263
1311878196.570725 0.323296 9.088214 -2.119386
1311878196.571826 0.323296 9.088214 -2.119386
1311878196.575466 0.419088 9.136110 -1.544637
1311878196.576435 0.419088 9.136110 -1.544637
1311878196.577693 0.419088 9.136110 -1.544637
1311878196.578685 0.419088 9.136110 -1.544637
1311878196.582576 -0.167635 9.471380 -0.490931
1311878196.583640 -0.167635 9.471380 -0.490931
1311878196.587199 -0.167635 9.758754 -1.544637
1311878196.588316 -0.167635 9.758754 -1.544637
1311878196.591563 0.802253 9.662963 -2.358865
1311878196.592703 0.802253 9.662963 -2.358865
1311878196.596346 0.227505 9.184006 -1.879907
1311878196.597205 0.227505 9.184006 -1.879907
1311878196.600575 0.047896 9.806650 -0.778306
1311878196.601690 0.047896 9.806650 -0.778306
1311878196.605319 0.119739 9.471380 -1.161471
1311878196.606336 0.119739 9.471380 -1.161471
1311878196.607559 0.119739 9.471380 -1.161471
1311878196.608566 0.119739 9.471380 -1.161471
1311878196.612336 0.502905 9.088214 -2.215177
1311878196.613331 0.502905 9.088214 -2.215177
1311878196.616707 0.407114 9.279797 -1.353054
1311878196.617578 0.407114 9.279797 -1.353054
1311878196.621341 0.011974 9.375588 -0.586723
1311878196.622426 0.011974 9.375588 -0.586723
1311878196.625690 0.023948 9.375588 -1.137524
1311878196.626676 0.023948 9.375588 -1.137524
1311878196.630461 0.802253 9.483354 -2.310969
1311878196.631564 0.802253 9.483354 -2.310969
1311878196.632689 0.802253 9.483354 -2.310969
1311878196.633701 0.802253 9.483354 -2.310969
1311878196.637587 0.011974 9.471380 -1.592533
1311878196.640687 0.023948 10.046129 -0.778306
1311878196.641677 0.023948 10.046129 -0.778306
1311878196.645339 0.023948 9.483354 -1.161471
1311878196.646446 0.023948 9.483354 -1.161471
1311878196.647618 0.023948 9.483354 -1.161471
1311878196.648565 0.023948 9.483354 -1.161471
1311878196.652309 0.598697 9.471380 -2.694135
1311878196.653295 0.598697 9.471380 -2.694135
1311878196.656680 0.502905 9.471380 -1.927803
1311878196.657698 0.502905 9.471380 -1.927803
1311878196.661468 0.071844 9.279797 -0.586723
1311878196.662582 0.071844 9.279797 -0.586723
1311878196.665586 0.023948 9.375588 -0.682514
1311878196.666688 0.023948 9.375588 -0.682514
1311878196.670344 0.778306 9.076240 -1.736220
1311878196.671332 0.778306 9.076240 -1.736220
1311878196.672963 0.778306 9.076240 -1.736220
1311878196.675573 0.407114 9.279797 -1.353054
1311878196.676680 0.407114 9.279797 -1.353054
1311878196.680485 0.023948 9.136110 -0.107765
1311878196.681602 0.023948 9.136110 -0.107765
1311878196.682712 0.023948 9.136110 -0.107765
1311878196.683708 0.023948 9.136110 -0.107765
1311878196.687329 0.023948 9.375588 -0.790279
1311878196.688423 0.023948 9.375588 -0.790279
1311878196.692208 0.598697 9.040318 -1.736220
1311878196.693193 0.598697 9.040318 -1.736220
1311878196.694354 0.598697 9.040318 -1.736220
1311878196.697698 0.023948 9.471380 -0.682514
1311878196.698848 0.023948 9.471380 -0.682514
1311878196.702626 -0.538827 9.112162 -0.107765
1311878196.705585 0.023948 9.423484 -0.682514
1311878196.706720 0.023948 9.423484 -0.682514
1311878196.710441 0.706462 9.375588 -1.927803
1311878196.711572 0.706462 9.375588 -1.927803
1311878196.712906 0.706462 9.375588 -1.927803
1311878196.716377 -0.011974 9.088214 -1.161471
1311878196.717312 -0.011974 9.088214 -1.161471
1311878196.720685 0.119739 9.471380 -0.371192
1311878196.721687 0.119739 9.471380 -0.371192
1311878196.725323 0.071844 9.567171 -0.778306
1311878196.726444 0.071844 9.567171 -0.778306
1311878196.728018 0.071844 9.567171 -0.778306
1311878196.730817 0.502905 9.136110 -1.879907
1311878196.731824 0.502905 9.136110 -1.879907
1311878196.735435 0.598697 9.184006 -1.496741
1311878196.736589 0.598697 9.184006 -1.496741
1311878196.737711 0.598697 9.184006 -1.496741
1311878196.738688 0.598697 9.184006 -1.496741
1311878196.742454 -0.347244 9.471380 -0.395140
1311878196.743604 -0.347244 9.471380 -0.395140
1311878196.746816 0.227505 9.471380 -0.969888
1311878196.747824 0.227505 9.471380 -0.969888
1311878196.751594 0.886071 9.447432 -1.640429
1311878196.753143 0.886071 9.447432 -1.640429
1311878196.755716 0.119739 9.064266 -1.640429
1311878196.756715 0.119739 9.064266 -1.640429
1311878196.757735 0.119739 9.064266 -1.640429
1311878196.761597 0.227505 9.519276 -0.395140
1311878196.762702 0.227505 9.519276 -0.395140
1311878196.766338 0.407114 9.495328 -1.161471
1311878196.767320 0.407114 9.495328 -1.161471
1311878196.770808 0.706462 9.088214 -2.119386
1311878196.772216 0.706462 9.088214 -2.119386
1311878196.775316 0.802253 9.136110 -1.640429
1311878196.776446 0.802253 9.136110 -1.640429
1311878196.777657 0.802253 9.136110 -1.640429
1311878196.778827 0.802253 9.136110 -1.640429
1311878196.782519 -0.059870 9.112162 -0.682514
1311878196.785558 0.227505 9.279797 -1.065680
1311878196.786666 0.227505 9.279797 -1.065680
1311878196.790456 1.137524 9.375588 -2.119386
1311878196.791463 1.137524 9.375588 -2.119386
1311878196.792693 1.137524 9.375588 -2.119386
1311878196.793690 1.137524 9.375588 -2.119386
1311878196.797437 -0.167635 9.100188 -1.544637
1311878196.798451 -0.167635 9.100188 -1.544637
1311878196.801698 0.023948 9.662963 -0.682514
1311878196.802715 0.023948 9.662963 -0.682514
1311878196.806314 0.119739 9.830598 -1.161471
1311878196.807509 0.119739 9.830598 -1.161471
1311878196.810852 0.227505 9.375588 -2.263073
1311878196.811848 0.227505 9.375588 -2.263073
1311878196.815569 0.502905 9.471380 -1.736220
1311878196.816558 0.502905 9.471380 -1.736220
1311878196.817675 0.502905 9.471380 -1.736220
1311878196.818825 0.502905 9.471380 -1.736220
1311878196.822581 -0.347244 9.184006 -0.586723
1311878196.823449 -0.347244 9.184006 -0.586723
1311878196.826698 0.407114 9.483354 -0.874097
1311878196.827708 0.407114 9.483354 -0.874097
1311878196.831565 0.993836 9.100188 -1.927803
1311878196.832577 0.993836 9.100188 -1.927803
1311878196.835716 0.227505 8.992423 -1.544637
1311878196.836684 0.227505 8.992423 -1.544637
1311878196.840353 0.035922 9.184006 -0.730410
1311878196.841450 0.035922 9.184006 -0.730410
1311878196.842685 0.035922 9.184006 -0.730410
1311878196.843690 0.035922 9.184006 -0.730410
1311878196.847589 0.407114 9.459406 -1.544637
1311878196.850695 0.371192 9.184006 -2.215177
1311878196.851562 0.371192 9.184006 -2.215177
1311878196.855315 0.407114 9.375588 -1.975699
1311878196.856309 0.407114 9.375588 -1.975699
1311878196.857351 0.407114 9.375588 -1.975699
1311878196.860735 0.047896 9.375588 -1.161471
1311878196.861689 0.047896 9.375588 -1.161471
1311878196.865447 -0.059870 9.375588 -1.353054
1311878196.866328 -0.059870 9.375588 -1.353054
1311878196.867656 -0.059870 9.375588 -1.353054
1311878196.868729 -0.059870 9.375588 -1.353054
1311878196.872194 0.802253 9.471380 -2.310969
1311878196.873210 0.802253 9.471380 -2.310969
1311878196.874335 0.802253 9.471380 -2.310969
1311878196.877712 0.011974 9.136110 -1.592533
1311878196.878925 0.011974 9.136110 -1.592533
1311878196.882447 0.323296 9.519276 -0.969888
1311878196.883427 0.323296 9.519276 -0.969888
1311878196.886801 0.407114 9.375588 -1.532663
1311878196.887665 0.407114 9.375588 -1.532663
1311878196.891448 0.407114 9.279797 -2.119386
1311878196.892440 0.407114 9.279797 -2.119386
1311878196.895710 0.407114 9.136110 -1.520689
1311878196.896698 0.407114 9.136110 -1.520689
1311878196.900315 0.119739 9.279797 -0.969888
1311878196.902550 0.119739 9.279797 -0.969888
1311878196.905266 0.023948 9.447432 -1.544637
1311878196.906187 0.023948 9.447432 -1.544637
1311878196.907436 0.023948 9.447432 -1.544637
1311878196.908447 0.023948 9.447432 -1.544637
1311878196.912248 0.407114 9.279797 -2.119386
1311878196.915312 0.023948 9.184006 -1.927803
1311878196.916477 0.023948 9.184006 -1.927803
1311878196.917541 0.023948 9.184006 -1.927803
1311878196.918664 0.023948 9.184006 -1.927803
1311878196.921709 0.047896 9.662963 -1.161471
1311878196.923185 0.047896 9.662963 -1.161471
1311878196.926452 0.371192 9.447432 -1.556611
1311878196.927560 0.371192 9.447432 -1.556611
1311878196.930704 0.598697 9.471380 -2.298995
1311878196.931668 0.598697 9.471380 -2.298995
1311878196.935440 0.431062 9.471380 -1.736220
1311878196.936429 0.431062 9.471380 -1.736220
1311878196.937571 0.431062 9.471380 -1.736220
1311878196.938713 0.431062 9.471380 -1.736220
1311878196.942337 0.119739 9.279797 -1.161471
1311878196.943300 0.119739 9.279797 -1.161471
1311878196.946594 0.407114 9.471380 -1.353054
1311878196.947570 0.407114 9.471380 -1.353054
1311878196.951332 0.407114 9.184006 -1.903855
1311878196.952312 0.407114 9.184006 -1.903855
1311878196.955546 -0.059870 9.279797 -1.353054
1311878196.956568 -0.059870 9.279797 -1.353054
1311878196.960330 -0.167635 9.567171 -0.778306
1311878196.961295 -0.167635 9.567171 -0.778306
1311878196.962546 -0.167635 9.567171 -0.778306
1311878196.963571 -0.167635 9.567171 -0.778306
1311878196.966716 -0.263426 9.567171 -1.353054
1311878196.967880 -0.263426 9.567171 -1.353054
1311878196.971434 0.023948 9.375588 -1.927803
1311878196.972470 0.023948 9.375588 -1.927803
1311878196.975551 0.119739 9.519276 -1.544637
1311878196.976662 0.119739 9.519276 -1.544637
1311878196.980328 0.023948 9.279797 -0.778306
1311878196.981316 0.023948 9.279797 -0.778306
1311878196.982568 0.023948 9.279797 -0.778306
1311878196.983686 0.023948 9.279797 -0.778306
1311878196.986713 0.227505 9.279797 -1.161471
1311878196.987787 0.227505 9.279797 -1.161471
1311878196.991373 0.802253 9.088214 -1.544637
1311878196.992427 0.802253 9.088214 -1.544637
1311878196.995749 0.407114 8.752944 -1.161471
1311878196.996579 0.407114 8.752944 -1.161471
1311878197.000706 0.023948 9.184006 -0.778306
1311878197.001685 0.023948 9.184006 -0.778306
1311878197.002882 0.023948 9.184006 -0.778306
1311878197.006336 0.407114 9.184006 -1.065680
1311878197.007822 0.407114 9.184006 -1.065680
1311878197.010581 0.323296 9.112162 -1.448846
1311878197.011683 0.323296 9.112162 -1.448846
1311878197.015339 0.407114 9.279797 -0.969888
1311878197.016308 0.407114 9.279797 -0.969888
1311878197.017557 0.407114 9.279797 -0.969888
1311878197.018664 0.407114 9.279797 -0.969888
1311878197.021717 -0.059870 9.471380 -0.586723
1311878197.022694 -0.059870 9.471380 -0.586723
1311878197.026442 0.035922 9.495328 -1.257263
1311878197.027431 0.035922 9.495328 -1.257263
1311878197.030554 0.502905 9.447432 -1.568585
1311878197.031693 0.502905 9.447432 -1.568585
1311878197.035356 0.119739 9.184006 -1.448846
1311878197.036342 0.119739 9.184006 -1.448846
1311878197.037442 0.119739 9.184006 -1.448846
1311878197.038687 0.119739 9.184006 -1.448846
1311878197.043561 0.023948 9.471380 -0.778306
1311878197.045484 0.407114 9.375588 -1.544637
1311878197.046432 0.407114 9.375588 -1.544637
1311878197.047708 0.407114 9.375588 -1.544637
1311878197.048690 0.407114 9.375588 -1.544637
1311878197.052304 0.035922 9.375588 -1.927803
1311878197.053436 0.035922 9.375588 -1.927803
1311878197.056676 0.119739 9.662963 -1.448846
1311878197.057664 0.119739 9.662963 -1.448846
1311878197.061178 0.227505 9.662963 -1.353054
1311878197.062299 0.227505 9.662963 -1.353054
1311878197.065601 0.227505 9.519276 -1.736220
1311878197.066681 0.227505 9.519276 -1.736220
1311878197.070356 0.598697 9.471380 -1.927803
1311878197.071307 0.598697 9.471380 -1.927803
1311878197.072318 0.598697 9.471380 -1.927803
1311878197.075683 0.323296 9.088214 -1.353054
1311878197.076664 0.323296 9.088214 -1.353054
1311878197.080374 0.023948 9.375588 -0.969888
1311878197.081439 0.023948 9.375588 -0.969888
1311878197.082562 0.023948 9.375588 -0.969888
1311878197.085695 0.598697 9.279797 -1.736220
1311878197.086810 0.598697 9.279797 -1.736220
1311878197.090334 0.407114 9.279797 -1.975699
1311878197.091354 0.407114 9.279797 -1.975699
1311878197.092562 0.407114 9.279797 -1.975699
1311878197.093542 0.407114 9.279797 -1.975699
1311878197.097188 0.455009 9.471380 -1.065680
1311878197.100435 0.047896 9.375588 -0.969888
1311878197.101302 0.047896 9.375588 -0.969888
1311878197.102685 0.047896 9.375588 -0.969888
1311878197.103691 0.047896 9.375588 -0.969888
1311878197.106806 0.371192 9.423484 -1.544637
1311878197.107802 0.371192 9.423484 -1.544637
1311878197.111331 0.407114 9.375588 -1.544637
1311878197.112450 0.407114 9.375588 -1.544637
1311878197.115694 0.023948 9.423484 -1.185419
1311878197.116692 0.023948 9.423484 -1.185419
1311878197.120297 0.023948 9.471380 -0.874097
1311878197.121293 0.023948 9.471380 -0.874097
1311878197.122553 0.023948 9.471380 -0.874097
1311878197.123600 0.023948 9.471380 -0.874097
1311878197.127193 0.598697 9.471380 -1.640429
1311878197.128164 0.598697 9.471380 -1.640429
1311878197.129289 0.598697 9.471380 -1.640429
1311878197.132551 0.023948 9.088214 -1.448846
1311878197.133552 0.023948 9.088214 -1.448846
1311878197.136695 0.407114 9.088214 -0.778306
1311878197.137695 0.407114 9.088214 -0.778306
1311878197.141309 0.023948 9.184006 -0.969888
1311878197.142444 0.023948 9.184006 -0.969888
1311878197.145897 0.227505 9.471380 -1.736220
1311878197.147183 0.227505 9.471380 -1.736220
1311878197.148321 0.227505 9.471380 -1.736220
1311878197.149306 0.227505 9.471380 -1.736220
1311878197.152698 0.502905 9.471380 -1.640429
1311878197.155710 0.227505 9.471380 -1.161471
1311878197.156707 0.227505 9.471380 -1.161471
1311878197.160313 0.227505 9.471380 -0.969888
1311878197.161284 0.227505 9.471380 -0.969888
1311878197.162547 0.227505 9.471380 -0.969888
1311878197.163547 0.227505 9.471380 -0.969888
1311878197.167286 0.455009 9.184006 -1.544637
1311878197.170319 0.323296 9.136110 -1.927803
1311878197.171313 0.323296 9.136110 -1.927803
1311878197.172627 0.323296 9.136110 -1.927803
1311878197.173551 0.323296 9.136110 -1.927803
1311878197.177191 0.455009 9.375588 -0.826201
1311878197.180307 0.407114 9.471380 -0.969888
1311878197.181471 0.407114 9.471380 -0.969888
1311878197.182572 0.407114 9.471380 -0.969888
1311878197.183702 0.407114 9.471380 -0.969888
1311878197.187171 0.598697 9.088214 -1.568585
1311878197.190306 0.778306 9.112162 -1.736220
1311878197.191325 0.778306 9.112162 -1.736220
1311878197.192545 0.778306 9.112162 -1.736220
1311878197.193673 0.778306 9.112162 -1.736220
1311878197.196811 -0.059870 9.088214 -1.185419
1311878197.197849 -0.059870 9.088214 -1.185419
1311878197.201432 0.323296 9.662963 -1.353054
1311878197.202424 0.323296 9.662963 -1.353054
1311878197.205719 0.407114 9.459406 -2.023594
1311878197.206702 0.407114 9.459406 -2.023594
1311878197.210361 0.119739 9.375588 -2.215177
1311878197.211306 0.119739 9.375588 -2.215177
1311878197.212600 0.119739 9.375588 -2.215177
1311878197.213644 0.119739 9.375588 -2.215177
1311878197.217077 0.371192 9.471380 -1.113576
1311878197.218160 0.371192 9.471380 -1.113576
1311878197.221578 0.023948 9.136110 -1.353054
1311878197.222547 0.023948 9.136110 -1.353054
1311878197.225577 0.407114 9.279797 -1.927803
1311878197.226871 0.407114 9.279797 -1.927803
1311878197.230374 0.395140 9.184006 -1.544637
1311878197.231431 0.395140 9.184006 -1.544637
1311878197.232557 0.395140 9.184006 -1.544637
1311878197.233683 0.395140 9.184006 -1.544637
1311878197.236693 -0.011974 9.471380 -0.874097
1311878197.237715 -0.011974 9.471380 -0.874097
1311878197.241528 0.395140 9.662963 -1.209367
1311878197.242451 0.395140 9.662963 -1.209367
1311878197.245730 0.455009 9.483354 -1.915829
1311878197.246722 0.455009 9.483354 -1.915829
1311878197.250304 0.023948 9.423484 -1.544637
1311878197.251420 0.023948 9.423484 -1.544637
1311878197.252538 0.023948 9.423484 -1.544637
1311878197.253686 0.023948 9.423484 -1.544637
1311878197.256671 0.023948 9.758754 -0.874097
1311878197.257819 0.023948 9.758754 -0.874097
1311878197.261548 -0.059870 9.471380 -1.544637
1311878197.262541 -0.059870 9.471380 -1.544637
1311878197.265692 -0.011974 9.375588 -2.119386
1311878197.266813 -0.011974 9.375588 -2.119386
1311878197.270455 0.407114 9.662963 -1.520689
1311878197.271889 0.407114 9.662963 -1.520689
1311878197.273085 0.407114 9.662963 -1.520689
1311878197.276430 -0.359218 9.567171 -0.874097
1311878197.277412 -0.359218 9.567171 -0.874097
1311878197.280784 0.023948 9.519276 -1.209367
1311878197.281713 0.023948 9.519276 -1.209367
1311878197.282807 0.023948 9.519276 -1.209367
1311878197.286297 0.802253 9.076240 -1.448846
1311878197.287407 0.802253 9.076240 -1.448846
1311878197.290698 0.023948 9.040318 -0.874097
1311878197.291714 0.023948 9.040318 -0.874097
1311878197.295441 -0.263426 9.375588 -0.383166
1311878197.296422 -0.263426 9.375588 -0.383166
1311878197.297706 -0.263426 9.375588 -0.383166
1311878197.298679 -0.263426 9.375588 -0.383166
1311878197.302325 0.395140 9.184006 -1.173445
1311878197.303427 0.395140 9.184006 -1.173445
1311878197.306683 0.227505 9.100188 -1.544637
1311878197.307666 0.227505 9.100188 -1.544637
1311878197.311372 0.323296 9.471380 -0.778306
1311878197.312302 0.323296 9.471380 -0.778306
1311878197.315590 -0.311322 9.483354 -0.586723
1311878197.316694 -0.311322 9.483354 -0.586723
1311878197.320315 0.023948 9.459406 -1.161471
1311878197.321306 0.023948 9.459406 -1.161471
1311878197.322535 0.023948 9.459406 -1.161471
1311878197.323590 0.023948 9.459406 -1.161471
1311878197.326788 0.455009 9.136110 -1.640429
1311878197.327795 0.455009 9.136110 -1.640429
1311878197.331431 0.011974 9.279797 -1.113576
1311878197.332424 0.011974 9.279797 -1.113576
1311878197.335692 0.119739 9.519276 -0.730410
1311878197.336699 0.119739 9.519276 -0.730410
1311878197.340316 0.706462 9.375588 -1.353054
1311878197.341446 0.706462 9.375588 -1.353054
1311878197.342566 0.706462 9.375588 -1.353054
1311878197.343702 0.706462 9.375588 -1.353054
1311878197.346785 0.502905 9.088214 -1.257263
1311878197.347880 0.502905 9.088214 -1.257263
1311878197.351430 0.407114 9.279797 -0.490931
1311878197.352410 0.407114 9.279797 -0.490931
1311878197.355565 0.023948 9.279797 -0.586723
1311878197.356555 0.023948 9.279797 -0.586723
1311878197.360305 0.455009 9.279797 -1.161471
1311878197.361282 0.455009 9.279797 -1.161471
1311878197.362679 0.455009 9.279797 -1.161471
1311878197.363659 0.455009 9.279797 -1.161471
1311878197.366801 0.455009 9.136110 -1.353054
1311878197.367677 0.455009 9.136110 -1.353054
1311878197.371312 -0.011974 9.471380 -0.969888
1311878197.373279 -0.011974 9.471380 -0.969888
1311878197.375553 0.227505 9.662963 -0.826201
1311878197.376650 0.227505 9.662963 -0.826201
1311878197.380439 0.455009 9.184006 -1.640429
1311878197.381483 0.455009 9.184006 -1.640429
1311878197.382704 0.455009 9.184006 -1.640429
1311878197.383679 0.455009 9.184006 -1.640429
1311878197.387326 0.407114 9.184006 -1.544637
1311878197.388298 0.407114 9.184006 -1.544637
1311878197.391560 0.502905 9.471380 -0.874097
1311878197.392666 0.502905 9.471380 -0.874097
1311878197.396303 0.227505 9.184006 -1.353054
1311878197.397287 0.227505 9.184006 -1.353054
1311878197.400548 0.706462 9.375588 -1.832012
1311878197.401685 0.706462 9.375588 -1.832012
1311878197.405213 0.802253 9.184006 -1.544637
1311878197.406298 0.802253 9.184006 -1.544637
1311878197.407578 0.802253 9.184006 -1.544637
1311878197.408540 0.802253 9.184006 -1.544637
1311878197.411802 0.023948 9.375588 -0.766332
1311878197.413206 0.023948 9.375588 -0.766332
1311878197.416445 0.802253 9.495328 -1.113576
1311878197.417571 0.802253 9.495328 -1.113576
1311878197.420694 0.802253 9.076240 -1.592533
1311878197.421690 0.802253 9.076240 -1.592533
1311878197.425190 0.455009 9.088214 -1.520689
1311878197.426307 0.455009 9.088214 -1.520689
1311878197.427543 0.455009 9.088214 -1.520689
1311878197.428559 0.455009 9.088214 -1.520689
1311878197.431826 0.371192 9.375588 -0.874097
1311878197.432822 0.371192 9.375588 -0.874097
1311878197.436451 0.323296 9.279797 -1.496741
1311878197.437601 0.323296 9.279797 -1.496741
1311878197.440576 0.502905 9.375588 -1.915829
1311878197.441548 0.502905 9.375588 -1.915829
1311878197.445323 0.407114 9.279797 -1.592533
1311878197.446336 0.407114 9.279797 -1.592533
1311878197.447563 0.407114 9.279797 -1.592533
1311878197.448552 0.407114 9.279797 -1.592533
1311878197.451816 -0.059870 9.375588 -1.161471
1311878197.452655 -0.059870 9.375588 -1.161471
1311878197.456443 0.502905 9.662963 -1.556611
1311878197.457403 0.502905 9.662963 -1.556611
1311878197.460696 0.227505 9.375588 -2.023594
1311878197.461689 0.227505 9.375588 -2.023594
1311878197.465294 -0.167635 9.447432 -1.736220
1311878197.466300 -0.167635 9.447432 -1.736220
1311878197.467555 -0.167635 9.447432 -1.736220
1311878197.468549 -0.167635 9.447432 -1.736220
1311878197.472080 0.227505 9.662963 -0.874097
1311878197.475425 -0.059870 9.375588 -1.448846
1311878197.476426 -0.059870 9.375588 -1.448846
1311878197.477530 -0.059870 9.375588 -1.448846
1311878197.478667 -0.059870 9.375588 -1.448846
1311878197.482374 0.407114 9.375588 -1.939777
1311878197.483425 0.407114 9.375588 -1.939777
1311878197.486691 0.227505 9.184006 -1.353054
1311878197.487654 0.227505 9.184006 -1.353054
1311878197.491335 -0.011974 9.279797 -0.874097
1311878197.492285 -0.011974 9.279797 -0.874097
1311878197.495696 0.047896 9.423484 -1.257263
1311878197.496675 0.047896 9.423484 -1.257263
1311878197.500320 0.323296 9.088214 -1.879907
1311878197.501428 0.323296 9.088214 -1.879907
1311878197.503509 0.323296 9.088214 -1.879907
1311878197.505579 0.227505 9.088214 -1.496741
1311878197.506680 0.227505 9.088214 -1.496741
1311878197.510306 0.227505 9.662963 -0.969888
1311878197.511296 0.227505 9.662963 -0.969888
1311878197.512600 0.227505 9.662963 -0.969888
1311878197.513604 0.227505 9.662963 -0.969888
1311878197.516826 0.023948 9.375588 -1.927803
1311878197.518166 0.023948 9.375588 -1.927803
1311878197.521430 0.323296 9.471380 -1.975699
1311878197.522405 0.323296 9.471380 -1.975699
1311878197.525532 0.023948 9.279797 -1.568585
1311878197.526690 0.023948 9.279797 -1.568585
1311878197.530303 -0.347244 9.519276 -1.257263
1311878197.531288 -0.347244 9.519276 -1.257263
1311878197.532538 -0.347244 9.519276 -1.257263
1311878197.533567 -0.347244 9.519276 -1.257263
1311878197.536803 0.407114 9.567171 -1.927803
1311878197.537734 0.407114 9.567171 -1.927803
1311878197.541312 0.395140 9.471380 -2.023594
1311878197.542444 0.395140 9.471380 -2.023594
1311878197.545578 -0.167635 9.471380 -1.448846
1311878197.546719 -0.167635 9.471380 -1.448846
1311878197.550317 0.023948 9.662963 -0.778306
1311878197.551450 0.023948 9.662963 -0.778306
1311878197.552579 0.023948 9.662963 -0.778306
1311878197.553718 0.023948 9.662963 -0.778306
1311878197.557379 0.323296 9.375588 -1.544637
1311878197.558296 0.323296 9.375588 -1.544637
1311878197.561584 0.227505 9.279797 -1.736220
1311878197.562533 0.227505 9.279797 -1.736220
1311878197.566301 0.227505 9.279797 -1.137524
1311878197.567590 0.227505 9.279797 -1.137524
1311878197.570570 -0.167635 9.375588 -1.161471
1311878197.571574 -0.167635 9.375588 -1.161471
1311878197.572801 -0.167635 9.375588 -1.161471
1311878197.574187 -0.167635 9.375588 -1.161471
1311878197.577428 0.455009 9.471380 -1.544637
1311878197.578575 0.455009 9.471380 -1.544637
1311878197.581695 0.227505 9.088214 -1.736220
1311878197.582708 0.227505 9.088214 -1.736220
1311878197.586469 0.119739 9.447432 -1.161471
1311878197.587424 0.119739 9.447432 -1.161471
1311878197.590576 0.227505 9.471380 -0.778306
1311878197.591573 0.227505 9.471380 -0.778306
1311878197.595324 0.035922 9.447432 -1.161471
1311878197.596310 0.035922 9.447432 -1.161471
1311878197.597422 0.035922 9.447432 -1.161471
1311878197.598691 0.035922 9.447432 -1.161471
1311878197.601547 0.419088 9.279797 -0.969888
1311878197.602695 0.419088 9.279797 -0.969888
1311878197.606304 0.227505 9.662963 -0.395140
1311878197.607450 0.227505 9.662963 -0.395140
1311878197.610714 -0.263426 9.662963 -0.586723
1311878197.611689 -0.263426 9.662963 -0.586723
1311878197.615315 0.407114 9.662963 -1.161471
1311878197.616287 0.407114 9.662963 -1.161471
1311878197.617528 0.407114 9.662963 -1.161471
1311878197.618550 0.407114 9.662963 -1.161471
1311878197.621671 0.502905 9.471380 -1.353054
1311878197.622678 0.502905 9.471380 -1.353054
1311878197.626311 0.071844 9.758754 -1.113576
1311878197.627429 0.071844 9.758754 -1.113576
1311878197.630728 0.598697 9.662963 -1.161471
1311878197.631807 0.598697 9.662963 -1.161471
1311878197.632782 0.598697 9.662963 -1.161471
1311878197.636584 0.802253 9.279797 -1.927803
1311878197.637546 0.802253 9.279797 -1.927803
1311878197.638685 0.802253 9.279797 -1.927803
1311878197.642355 0.802253 9.375588 -1.736220
1311878197.643291 0.802253 9.375588 -1.736220
1311878197.646608 0.838175 9.459406 -1.161471
1311878197.647550 0.838175 9.459406 -1.161471
1311878197.651183 0.790279 9.471380 -1.161471
1311878197.652322 0.790279 9.471380 -1.161471
1311878197.655568 0.993836 9.088214 -1.448846
1311878197.656569 0.993836 9.088214 -1.448846
1311878197.657660 0.993836 9.088214 -1.448846
1311878197.659173 0.993836 9.088214 -1.448846
1311878197.662567 0.754358 9.088214 -0.682514
1311878197.663562 0.754358 9.088214 -0.682514
1311878197.666829 0.227505 8.896631 -0.107765
1311878197.670216 0.790279 9.040318 -0.011974
1311878197.671321 0.790279 9.040318 -0.011974
1311878197.672359 0.790279 9.040318 -0.011974
1311878197.675544 0.790279 8.752944 -0.203557
1311878197.676559 0.790279 8.752944 -0.203557
1311878197.679817 0.598697 8.513465 -0.011974
1311878197.680952 0.598697 8.513465 -0.011974
1311878197.682417 0.598697 8.513465 -0.011974
1311878197.683432 0.598697 8.513465 -0.011974
1311878197.686810 0.598697 9.184006 0.562775
1311878197.687776 0.598697 9.184006 0.562775
1311878197.691309 0.023948 8.896631 0.179609
1311878197.692292 0.023948 8.896631 0.179609
1311878197.695749 0.407114 9.088214 -0.011974
1311878197.696835 0.407114 9.088214 -0.011974
1311878197.698217 0.407114 9.088214 -0.011974
1311878197.701423 0.323296 9.088214 0.395140
1311878197.702425 0.323296 9.088214 0.395140
1311878197.705543 -0.347244 9.423484 0.562775
1311878197.706543 -0.347244 9.423484 0.562775
1311878197.709673 0.023948 9.662963 -0.035922
1311878197.710839 0.023948 9.662963 -0.035922
1311878197.712314 0.023948 9.662963 -0.035922
1311878197.713328 0.023948 9.662963 -0.035922
1311878197.716789 -0.167635 9.423484 -0.778306
1311878197.717656 -0.167635 9.423484 -0.778306
1311878197.721413 -0.167635 9.471380 -0.203557
1311878197.722403 -0.167635 9.471380 -0.203557
1311878197.725431 0.023948 9.662963 -0.059870
1311878197.726527 0.023948 9.662963 -0.059870
1311878197.727787 0.023948 9.662963 -0.059870
1311878197.728793 0.023948 9.662963 -0.059870
1311878197.732571 0.023948 9.471380 -1.257263
1311878197.733695 0.023948 9.471380 -1.257263
1311878197.736740 0.502905 9.471380 -1.544637
1311878197.737706 0.502905 9.471380 -1.544637
1311878197.741303 -0.167635 9.279797 -1.065680
1311878197.742435 -0.167635 9.279797 -1.065680
1311878197.745674 -0.371192 9.279797 -0.790279
1311878197.746551 -0.371192 9.279797 -0.790279
1311878197.750348 0.371192 9.854546 -1.496741
1311878197.751331 0.371192 9.854546 -1.496741
1311878197.752570 0.371192 9.854546 -1.496741
1311878197.753560 0.371192 9.854546 -1.496741
1311878197.756690 0.011974 9.471380 -1.927803
1311878197.757674 0.011974 9.471380 -1.927803
1311878197.761415 0.023948 9.854546 -1.353054
1311878197.762563 0.023948 9.854546 -1.353054
1311878197.765702 0.227505 9.662963 -0.874097
1311878197.766693 0.227505 9.662963 -0.874097
1311878197.770318 -0.167635 9.471380 -1.209367
1311878197.771300 -0.167635 9.471380 -1.209367
1311878197.772543 -0.167635 9.471380 -1.209367
1311878197.773532 -0.167635 9.471380 -1.209367
1311878197.776706 0.407114 9.447432 -1.927803
1311878197.777664 0.407114 9.447432 -1.927803
1311878197.781417 0.023948 9.088214 -1.832012
1311878197.782400 0.023948 9.088214 -1.832012
1311878197.785529 -0.167635 9.088214 -1.448846
1311878197.786664 -0.167635 9.088214 -1.448846
1311878197.790323 0.227505 9.279797 -1.448846
1311878197.791488 0.227505 9.279797 -1.448846
1311878197.792293 0.227505 9.279797 -1.448846
1311878197.795695 0.323296 9.088214 -1.640429
1311878197.796563 0.323296 9.088214 -1.640429
1311878197.800375 0.023948 9.184006 -1.736220
1311878197.801429 0.023948 9.184006 -1.736220
1311878197.803728 0.023948 9.184006 -1.736220
1311878197.805558 0.119739 9.184006 -1.832012
1311878197.806553 0.119739 9.184006 -1.832012
1311878197.810166 0.119739 9.279797 -1.592533
1311878197.811197 0.119739 9.279797 -1.592533
1311878197.812428 0.119739 9.279797 -1.592533
1311878197.813617 0.119739 9.279797 -1.592533
1311878197.816707 -0.059870 9.854546 -1.736220
1311878197.817666 -0.059870 9.854546 -1.736220
1311878197.821298 -0.167635 9.184006 -2.119386
1311878197.822418 -0.167635 9.184006 -2.119386
1311878197.825573 0.598697 9.662963 -1.927803
1311878197.826652 0.598697 9.662963 -1.927803
1311878197.830322 0.407114 9.471380 -1.556611
1311878197.831306 0.407114 9.471380 -1.556611
1311878197.832440 0.407114 9.471380 -1.556611
1311878197.833539 0.407114 9.471380 -1.556611
1311878197.836704 0.227505 9.279797 -1.879907
1311878197.837694 0.227505 9.279797 -1.879907
1311878197.841191 0.802253 9.471380 -1.903855
1311878197.842307 0.802253 9.471380 -1.903855
1311878197.845571 0.407114 9.279797 -1.927803
1311878197.846554 0.407114 9.279797 -1.927803
1311878197.850304 -0.059870 9.184006 -1.592533
1311878197.851271 -0.059870 9.184006 -1.592533
1311878197.852395 -0.059870 9.184006 -1.592533
1311878197.853399 -0.059870 9.184006 -1.592533
1311878197.856689 0.598697 9.758754 -1.353054
1311878197.857651 0.598697 9.758754 -1.353054
1311878197.861287 0.035922 9.471380 -1.736220
1311878197.862422 0.035922 9.471380 -1.736220
1311878197.865583 0.023948 9.471380 -1.736220
1311878197.866697 0.023948 9.471380 -1.736220
1311878197.870177 0.598697 9.567171 -1.556611
1311878197.871299 0.598697 9.567171 -1.556611
1311878197.872296 0.598697 9.567171 -1.556611
1311878197.875565 -0.011974 9.184006 -1.544637
1311878197.876530 -0.011974 9.184006 -1.544637
1311878197.880261 0.323296 9.279797 -1.544637
1311878197.881419 0.323296 9.279797 -1.544637
1311878197.882430 0.323296 9.279797 -1.544637
1311878197.885566 0.598697 9.279797 -1.544637
1311878197.886553 0.598697 9.279797 -1.544637
1311878197.888153 0.598697 9.279797 -1.544637
1311878197.890653 0.323296 8.992423 -1.544637
1311878197.891807 0.323296 8.992423 -1.544637
1311878197.895317 0.407114 9.088214 -1.353054
1311878197.896430 0.407114 9.088214 -1.353054
1311878197.897541 0.407114 9.088214 -1.353054
1311878197.898684 0.407114 9.088214 -1.353054
1311878197.902436 0.407114 9.136110 -1.927803
1311878197.903414 0.407114 9.136110 -1.927803
1311878197.906631 0.407114 9.136110 -1.927803
1311878197.907530 0.407114 9.136110 -1.927803
1311878197.911175 0.802253 9.279797 -1.736220
1311878197.912351 0.802253 9.279797 -1.736220
1311878197.915554 0.419088 9.471380 -1.353054
1311878197.916559 0.419088 9.471380 -1.353054
1311878197.917844 0.419088 9.471380 -1.353054
1311878197.919149 0.419088 9.471380 -1.353054
1311878197.922405 0.407114 9.471380 -1.448846
1311878197.923403 0.407114 9.471380 -1.448846
1311878197.926673 1.137524 9.279797 -1.592533
1311878197.927725 1.137524 9.279797 -1.592533
1311878197.931301 0.598697 9.423484 -1.353054
1311878197.932433 0.598697 9.423484 -1.353054
1311878197.935570 0.407114 9.459406 -0.969888
1311878197.936555 0.407114 9.459406 -0.969888
1311878197.940171 0.802253 9.471380 -0.778306
1311878197.941176 0.802253 9.471380 -0.778306
1311878197.942421 0.802253 9.471380 -0.778306
1311878197.943558 0.802253 9.471380 -0.778306
1311878197.946964 0.598697 9.279797 -1.149497
1311878197.950174 0.598697 9.184006 -1.185419
1311878197.951341 0.598697 9.184006 -1.185419
1311878197.952528 0.598697 9.184006 -1.185419
1311878197.955545 0.754358 9.112162 -1.113576
1311878197.956658 0.754358 9.112162 -1.113576
1311878197.960168 0.323296 9.459406 -1.173445
1311878197.961154 0.323296 9.459406 -1.173445
1311878197.962405 0.323296 9.459406 -1.173445
1311878197.963532 0.323296 9.459406 -1.173445
1311878197.966826 0.227505 9.112162 -1.832012
1311878197.969435 0.227505 9.112162 -1.832012
1311878197.971456 0.119739 9.136110 -2.119386
1311878197.972419 0.119739 9.136110 -2.119386
1311878197.975562 0.227505 9.471380 -1.927803
1311878197.976545 0.227505 9.471380 -1.927803
1311878197.980313 -0.167635 9.471380 -2.119386
1311878197.981183 -0.167635 9.471380 -2.119386
1311878197.982542 -0.167635 9.471380 -2.119386
1311878197.983537 -0.167635 9.471380 -2.119386
1311878197.986681 0.407114 9.447432 -2.358865
1311878197.987644 0.407114 9.447432 -2.358865
1311878197.991291 0.071844 9.471380 -1.927803
1311878197.992302 0.071844 9.471380 -1.927803
1311878197.995706 -0.059870 9.279797 -1.544637
1311878197.996690 -0.059870 9.279797 -1.544637
1311878198.000315 0.455009 9.495328 -1.161471
1311878198.001433 0.455009 9.495328 -1.161471
1311878198.002691 0.455009 9.495328 -1.161471
1311878198.003535 0.455009 9.495328 -1.161471
1311878198.006691 0.023948 9.184006 -1.544637
1311878198.007667 0.023948 9.184006 -1.544637
1311878198.011433 0.023948 9.279797 -1.161471
1311878198.012433 0.023948 9.279797 -1.161471
1311878198.015751 0.371192 9.519276 -0.586723
1311878198.016654 0.371192 9.519276 -0.586723
1311878198.020294 -0.167635 9.423484 -0.778306
1311878198.021407 -0.167635 9.423484 -0.778306
1311878198.022663 -0.167635 9.423484 -0.778306
1311878198.023714 -0.167635 9.423484 -0.778306
1311878198.026652 0.035922 9.375588 -1.209367
1311878198.027661 0.035922 9.375588 -1.209367
1311878198.031415 0.023948 9.483354 -1.448846
1311878198.032437 0.023948 9.483354 -1.448846
1311878198.035560 -0.646592 9.279797 -1.544637
1311878198.036557 -0.646592 9.279797 -1.544637
1311878198.040183 -0.359218 9.471380 -1.448846
1311878198.041162 -0.359218 9.471380 -1.448846
1311878198.042419 -0.359218 9.471380 -1.448846
1311878198.043436 -0.359218 9.471380 -1.448846
1311878198.046720 0.023948 9.471380 -1.879907
1311878198.047847 0.023948 9.471380 -1.879907
1311878198.051286 -0.538827 9.279797 -1.939777
1311878198.052279 -0.538827 9.279797 -1.939777
1311878198.055662 -0.167635 9.471380 -1.353054
1311878198.056648 -0.167635 9.471380 -1.353054
1311878198.060160 0.323296 9.184006 -1.353054
1311878198.061278 0.323296 9.184006 -1.353054
1311878198.062552 0.323296 9.184006 -1.353054
1311878198.063676 0.323296 9.184006 -1.353054
1311878198.066674 -0.011974 9.088214 -1.496741
1311878198.067907 -0.011974 9.088214 -1.496741
1311878198.071458 0.323296 9.447432 -1.065680
1311878198.072424 0.323296 9.447432 -1.065680
1311878198.075557 0.035922 9.136110 -0.778306
1311878198.076523 0.035922 9.136110 -0.778306
1311878198.080216 0.227505 9.423484 -0.778306
1311878198.081502 0.227505 9.423484 -0.778306
1311878198.082566 0.227505 9.423484 -0.778306
1311878198.083551 0.227505 9.423484 -0.778306
1311878198.086675 0.323296 9.375588 -1.257263
1311878198.087796 0.323296 9.375588 -1.257263
1311878198.091302 -0.263426 9.088214 -1.161471
1311878198.092269 -0.263426 9.088214 -1.161471
1311878198.095703 0.227505 9.375588 -1.161471
1311878198.096774 0.227505 9.375588 -1.161471
1311878198.097646 0.227505 9.375588 -1.161471
1311878198.101331 0.227505 9.279797 -1.544637
1311878198.102440 0.227505 9.279797 -1.544637
1311878198.105543 -0.167635 9.471380 -1.736220
1311878198.106699 -0.167635 9.471380 -1.736220
1311878198.110195 0.071844 9.471380 -1.736220
1311878198.111307 0.071844 9.471380 -1.736220
1311878198.112422 0.071844 9.471380 -1.736220
1311878198.115610 0.119739 9.184006 -1.544637
1311878198.116554 0.119739 9.184006 -1.544637
1311878198.120785 0.323296 9.471380 -1.448846
1311878198.121670 0.323296 9.471380 -1.448846
1311878198.122669 0.323296 9.471380 -1.448846
1311878198.126284 0.323296 9.375588 -1.544637
1311878198.127749 0.323296 9.375588 -1.544637
1311878198.130576 0.431062 9.088214 -1.257263
1311878198.131577 0.431062 9.088214 -1.257263
1311878198.135312 0.419088 9.567171 -0.778306
1311878198.136299 0.419088 9.567171 -0.778306
1311878198.137432 0.419088 9.567171 -0.778306
1311878198.138574 0.419088 9.567171 -0.778306
1311878198.141706 0.407114 9.279797 -1.161471
1311878198.142679 0.407114 9.279797 -1.161471
1311878198.146337 0.802253 9.447432 -1.448846
1311878198.147442 0.802253 9.447432 -1.448846
1311878198.150682 0.407114 9.459406 -1.257263
1311878198.151543 0.407114 9.459406 -1.257263
1311878198.155157 0.023948 9.088214 -1.448846
1311878198.156136 0.023948 9.088214 -1.448846
1311878198.157521 0.023948 9.088214 -1.448846
1311878198.158395 0.023948 9.088214 -1.448846
1311878198.161685 0.419088 9.567171 -1.879907
1311878198.162679 0.419088 9.567171 -1.879907
1311878198.166457 0.023948 9.447432 -2.310969
1311878198.167427 0.023948 9.447432 -2.310969
1311878198.170561 -0.011974 9.471380 -2.298995
1311878198.171539 -0.011974 9.471380 -2.298995
1311878198.175323 0.598697 9.758754 -1.592533
1311878198.176294 0.598697 9.758754 -1.592533
1311878198.177552 0.598697 9.758754 -1.592533
1311878198.178533 0.598697 9.758754 -1.592533
1311878198.181719 -0.167635 9.184006 -1.640429
1311878198.182811 -0.167635 9.184006 -1.640429
1311878198.186281 0.502905 9.375588 -1.544637
1311878198.187287 0.502905 9.375588 -1.544637
1311878198.190674 0.706462 9.471380 -1.113576
1311878198.191670 0.706462 9.471380 -1.113576
1311878198.195310 -0.167635 9.375588 -0.778306
1311878198.196273 -0.167635 9.375588 -0.778306
1311878198.197521 -0.167635 9.375588 -0.778306
1311878198.198562 -0.167635 9.375588 -0.778306
1311878198.201700 0.502905 9.519276 -0.586723
1311878198.202657 0.502905 9.519276 -0.586723
1311878198.206318 0.502905 9.471380 -0.802253
1311878198.207296 0.502905 9.471380 -0.802253
1311878198.210591 -0.347244 9.471380 -0.969888
1311878198.211582 -0.347244 9.471380 -0.969888
1311878198.215326 -0.011974 9.662963 -0.407114
1311878198.216429 -0.011974 9.662963 -0.407114
1311878198.217676 -0.011974 9.662963 -0.407114
1311878198.218684 -0.011974 9.662963 -0.407114
1311878198.221654 0.023948 9.375588 -0.778306
1311878198.222637 0.023948 9.375588 -0.778306
1311878198.226278 0.071844 9.471380 -1.065680
1311878198.227867 0.071844 9.471380 -1.065680
1311878198.230534 0.023948 9.112162 -0.790279
1311878198.231530 0.023948 9.112162 -0.790279
1311878198.235181 -0.167635 9.076240 -0.778306
1311878198.236280 -0.167635 9.076240 -0.778306
1311878198.237545 -0.167635 9.076240 -0.778306
1311878198.238412 -0.167635 9.076240 -0.778306
1311878198.241666 0.227505 9.184006 -0.586723
1311878198.243338 0.227505 9.184006 -0.586723
1311878198.246310 0.119739 9.088214 -0.778306
1311878198.247317 0.119739 9.088214 -0.778306
1311878198.250439 0.071844 9.088214 -0.586723
1311878198.251537 0.071844 9.088214 -0.586723
1311878198.252729 0.071844 9.088214 -0.586723
1311878198.253791 0.071844 9.088214 -0.586723
1311878198.257276 0.395140 9.279797 -0.011974
1311878198.258271 0.395140 9.279797 -0.011974
1311878198.261533 0.227505 9.088214 -0.203557
1311878198.262520 0.227505 9.088214 -0.203557
1311878198.266296 0.371192 9.088214 -0.586723
1311878198.267181 0.371192 9.088214 -0.586723
1311878198.270431 0.455009 9.184006 -0.586723
1311878198.271421 0.455009 9.184006 -0.586723
1311878198.272662 0.455009 9.184006 -0.586723
1311878198.273689 0.455009 9.184006 -0.586723
1311878198.277323 0.011974 9.184006 -0.371192
1311878198.278393 0.011974 9.184006 -0.371192
1311878198.281589 0.407114 9.279797 -0.586723
1311878198.282721 0.407114 9.279797 -0.586723
1311878198.286300 0.802253 9.279797 -1.065680
1311878198.287431 0.802253 9.279797 -1.065680
1311878198.290667 0.011974 9.279797 -1.173445
1311878198.291544 0.011974 9.279797 -1.173445
1311878198.295188 -0.167635 8.992423 -0.969888
1311878198.296842 -0.167635 8.992423 -0.969888
1311878198.298360 -0.167635 8.992423 -0.969888
1311878198.301361 0.754358 9.495328 -1.161471
1311878198.302342 0.754358 9.495328 -1.161471
1311878198.305540 0.023948 9.184006 -1.496741
1311878198.306656 0.023948 9.184006 -1.496741
1311878198.310306 0.419088 9.483354 -1.137524
1311878198.311338 0.419088 9.483354 -1.137524
1311878198.312576 0.419088 9.483354 -1.137524
1311878198.313591 0.419088 9.483354 -1.137524
1311878198.316681 0.395140 9.184006 -1.065680
1311878198.317670 0.395140 9.184006 -1.065680
1311878198.321353 0.407114 9.447432 -1.161471
1311878198.322285 0.407114 9.447432 -1.161471
1311878198.325441 1.089628 9.567171 -1.161471
1311878198.326554 1.089628 9.567171 -1.161471
1311878198.327775 1.089628 9.567171 -1.161471
1311878198.329140 1.089628 9.567171 -1.161471
1311878198.332302 -0.167635 9.279797 -1.113576
1311878198.333277 -0.167635 9.279797 -1.113576
1311878198.336434 0.598697 9.279797 -1.113576
1311878198.337523 0.598697 9.279797 -1.113576
1311878198.340564 0.886071 9.184006 -1.544637
1311878198.341658 0.886071 9.184006 -1.544637
1311878198.345320 0.071844 9.471380 -1.879907
1311878198.346291 0.071844 9.471380 -1.879907
1311878198.347619 0.071844 9.471380 -1.879907
1311878198.348543 0.071844 9.471380 -1.879907
1311878198.351663 0.371192 9.076240 -1.927803
1311878198.352650 0.371192 9.076240 -1.927803
1311878198.356277 0.407114 9.279797 -1.927803
1311878198.357265 0.407114 9.279797 -1.927803
1311878198.360533 -0.167635 9.567171 -1.736220
1311878198.361545 -0.167635 9.567171 -1.736220
1311878198.365309 0.023948 9.375588 -1.903855
1311878198.366356 0.023948 9.375588 -1.903855
1311878198.367639 0.023948 9.375588 -1.903855
1311878198.368588 0.023948 9.375588 -1.903855
1311878198.371663 0.598697 9.758754 -1.640429
1311878198.372644 0.598697 9.758754 -1.640429
1311878198.376400 0.023948 9.519276 -0.969888
1311878198.377390 0.023948 9.519276 -0.969888
1311878198.380538 0.023948 9.471380 -0.874097
1311878198.381644 0.023948 9.471380 -0.874097
1311878198.385145 0.395140 9.459406 -0.969888
1311878198.386310 0.395140 9.459406 -0.969888
1311878198.387473 0.395140 9.459406 -0.969888
1311878198.390707 0.227505 9.471380 -1.496741
1311878198.391637 0.227505 9.471380 -1.496741
1311878198.395368 0.023948 9.279797 -1.592533
1311878198.396260 0.023948 9.279797 -1.592533
1311878198.397393 0.023948 9.279797 -1.592533
1311878198.398528 0.023948 9.279797 -1.592533
1311878198.401710 0.023948 9.567171 -1.736220
1311878198.402786 0.023948 9.567171 -1.736220
1311878198.406423 0.023948 9.471380 -2.310969
1311878198.407552 0.023948 9.471380 -2.310969
1311878198.410692 -0.311322 9.471380 -2.789926
1311878198.411647 -0.311322 9.471380 -2.789926
1311878198.415294 0.035922 9.662963 -2.742030
1311878198.416301 0.035922 9.662963 -2.742030
1311878198.417526 0.035922 9.662963 -2.742030
1311878198.418533 0.035922 9.662963 -2.742030
1311878198.421670 -0.059870 9.375588 -2.287021
1311878198.422667 -0.059870 9.375588 -2.287021
1311878198.426545 -0.011974 9.471380 -1.832012
1311878198.427447 -0.011974 9.471380 -1.832012
1311878198.430550 0.431062 9.375588 -1.736220
1311878198.431538 0.431062 9.375588 -1.736220
1311878198.435175 0.227505 9.279797 -1.544637
1311878198.436278 0.227505 9.279797 -1.544637
1311878198.437639 0.227505 9.279797 -1.544637
1311878198.438418 0.227505 9.279797 -1.544637
1311878198.441668 0.407114 9.088214 -0.969888
1311878198.442793 0.407114 9.088214 -0.969888
1311878198.446409 0.502905 9.088214 -1.113576
1311878198.447276 0.502905 9.088214 -1.113576
1311878198.450536 0.323296 9.088214 -1.113576
1311878198.451560 0.323296 9.088214 -1.113576
1311878198.455174 0.047896 9.471380 -1.161471
1311878198.456263 0.047896 9.471380 -1.161471
1311878198.457145 0.047896 9.471380 -1.161471
1311878198.460529 0.047896 9.088214 -1.353054
1311878198.461512 0.047896 9.088214 -1.353054
1311878198.465166 0.407114 9.471380 -1.544637
1311878198.466406 0.407114 9.471380 -1.544637
1311878198.467433 0.407114 9.471380 -1.544637
1311878198.470675 0.023948 9.471380 -1.903855
1311878198.471680 0.023948 9.471380 -1.903855
1311878198.475183 -0.167635 9.567171 -1.736220
1311878198.476275 -0.167635 9.567171 -1.736220
1311878198.477464 -0.167635 9.567171 -1.736220
1311878198.478522 -0.167635 9.567171 -1.736220
1311878198.481707 0.119739 9.471380 -1.544637
1311878198.482676 0.119739 9.471380 -1.544637
1311878198.486274 0.407114 9.662963 -1.520689
1311878198.487343 0.407114 9.662963 -1.520689
1311878198.490515 -0.059870 9.279797 -1.556611
1311878198.491550 -0.059870 9.279797 -1.556611
1311878198.492669 -0.059870 9.279797 -1.556611
1311878198.493783 -0.059870 9.279797 -1.556611
1311878198.497299 0.502905 9.459406 -1.448846
1311878198.498409 0.502905 9.459406 -1.448846
1311878198.501699 0.323296 9.088214 -1.568585
1311878198.502820 0.323296 9.088214 -1.568585
1311878198.506486 0.227505 9.088214 -1.556611
1311878198.507426 0.227505 9.088214 -1.556611
1311878198.508409 0.227505 9.088214 -1.556611
1311878198.511659 0.502905 9.184006 -1.736220
1311878198.512787 0.502905 9.184006 -1.736220
1311878198.516336 0.047896 9.088214 -1.927803
1311878198.517281 0.047896 9.088214 -1.927803
1311878198.520704 0.395140 9.279797 -1.736220
1311878198.521545 0.395140 9.279797 -1.736220
1311878198.525142 0.598697 9.567171 -1.353054
1311878198.526265 0.598697 9.567171 -1.353054
1311878198.527533 0.598697 9.567171 -1.353054
1311878198.528515 0.598697 9.567171 -1.353054
1311878198.531655 0.011974 9.483354 -1.353054
1311878198.532650 0.011974 9.483354 -1.353054
1311878198.537321 0.502905 9.423484 -1.161471
1311878198.540158 0.598697 9.279797 -0.969888
1311878198.541147 0.598697 9.279797 -0.969888
1311878198.542269 0.598697 9.279797 -0.969888
1311878198.545537 0.071844 9.519276 -0.766332
1311878198.546700 0.071844 9.519276 -0.766332
1311878198.550302 0.407114 9.184006 -0.586723
1311878198.551417 0.407114 9.184006 -0.586723
1311878198.552283 0.407114 9.184006 -0.586723
1311878198.555647 0.598697 9.184006 -0.874097
1311878198.556663 0.598697 9.184006 -0.874097
1311878198.560177 0.227505 9.279797 -0.874097
1311878198.561300 0.227505 9.279797 -0.874097
1311878198.562417 0.227505 9.279797 -0.874097
1311878198.563526 0.227505 9.279797 -0.874097
1311878198.566661 0.119739 9.279797 -0.778306
1311878198.567827 0.119739 9.279797 -0.778306
1311878198.571425 0.407114 9.088214 -1.353054
1311878198.572426 0.407114 9.088214 -1.353054
1311878198.575532 0.598697 9.423484 -1.353054
1311878198.576544 0.598697 9.423484 -1.353054
1311878198.580156 0.119739 9.279797 -1.353054
1311878198.581175 0.119739 9.279797 -1.353054
1311878198.582277 0.119739 9.279797 -1.353054
1311878198.585522 0.119739 9.088214 -1.353054
1311878198.586629 0.119739 9.088214 -1.353054
1311878198.590275 0.802253 9.136110 -1.209367
1311878198.591163 0.802253 9.136110 -1.209367
1311878198.592410 0.802253 9.136110 -1.209367
1311878198.593406 0.802253 9.136110 -1.209367
1311878198.596674 0.023948 9.088214 -1.496741
1311878198.597804 0.023948 9.088214 -1.496741
1311878198.601419 0.323296 9.088214 -0.874097
1311878198.602607 0.323296 9.088214 -0.874097
1311878198.605537 1.089628 9.279797 -0.826201
1311878198.606553 1.089628 9.279797 -0.826201
1311878198.610170 0.395140 9.088214 -0.874097
1311878198.611177 0.395140 9.088214 -0.874097
1311878198.612789 0.395140 9.088214 -0.874097
1311878198.615677 0.598697 9.471380 -0.778306
1311878198.616696 0.598697 9.471380 -0.778306
1311878198.620186 0.754358 9.184006 -0.754358
1311878198.621280 0.754358 9.184006 -0.754358
1311878198.622398 0.754358 9.184006 -0.754358
1311878198.623507 0.754358 9.184006 -0.754358
1311878198.626660 0.227505 9.471380 -0.778306
1311878198.627650 0.227505 9.471380 -0.778306
1311878198.631277 0.227505 9.662963 -0.874097
1311878198.632278 0.227505 9.662963 -0.874097
1311878198.635543 0.035922 9.279797 -1.161471
1311878198.636659 0.035922 9.279797 -1.161471
1311878198.637811 0.035922 9.279797 -1.161471
1311878198.639172 0.035922 9.279797 -1.161471
1311878198.642452 0.227505 9.471380 -1.161471
1311878198.643425 0.227505 9.471380 -1.161471
1311878198.646839 0.119739 9.375588 -1.353054
1311878198.650306 0.023948 9.423484 -1.640429
1311878198.651294 0.023948 9.423484 -1.640429
1311878198.652570 0.023948 9.423484 -1.640429
1311878198.653411 0.023948 9.423484 -1.640429
1311878198.656549 0.371192 9.279797 -1.544637
1311878198.657639 0.371192 9.279797 -1.544637
1311878198.661278 0.071844 9.279797 -1.736220
1311878198.662281 0.071844 9.279797 -1.736220
1311878198.665405 0.227505 9.375588 -1.832012
1311878198.666548 0.227505 9.375588 -1.832012
1311878198.667708 0.227505 9.375588 -1.832012
1311878198.668783 0.227505 9.375588 -1.832012
1311878198.672364 0.407114 9.112162 -1.903855
1311878198.673418 0.407114 9.112162 -1.903855
1311878198.676671 0.119739 9.279797 -1.592533
1311878198.677631 0.119739 9.279797 -1.592533
1311878198.681412 0.023948 9.471380 -1.161471
1311878198.682437 0.023948 9.471380 -1.161471
1311878198.685548 0.407114 9.423484 -1.065680
1311878198.686656 0.407114 9.423484 -1.065680
1311878198.690181 0.227505 9.459406 -1.065680
1311878198.691265 0.227505 9.459406 -1.065680
1311878198.692411 0.227505 9.459406 -1.065680
1311878198.693420 0.227505 9.459406 -1.065680
1311878198.696651 -0.059870 9.662963 -0.790279
1311878198.697763 -0.059870 9.662963 -0.790279
1311878198.701304 0.023948 9.375588 -0.874097
1311878198.702426 0.023948 9.375588 -0.874097
1311878198.705541 -0.011974 9.495328 -0.969888
1311878198.706523 -0.011974 9.495328 -0.969888
1311878198.710157 0.023948 9.662963 -1.065680
1311878198.711320 0.023948 9.662963 -1.065680
1311878198.712553 0.023948 9.662963 -1.065680
1311878198.715583 -0.167635 9.471380 -1.448846
1311878198.716923 -0.167635 9.471380 -1.448846
1311878198.720320 -0.059870 9.519276 -1.640429
1311878198.721313 -0.059870 9.519276 -1.640429
1311878198.722532 -0.059870 9.519276 -1.640429
1311878198.723521 -0.059870 9.519276 -1.640429
1311878198.726769 -0.059870 9.184006 -2.310969
1311878198.727775 -0.059870 9.184006 -2.310969
1311878198.731302 0.023948 9.375588 -2.263073
1311878198.732392 0.023948 9.375588 -2.263073
1311878198.735690 0.023948 9.483354 -2.215177
1311878198.736686 0.023948 9.483354 -2.215177
1311878198.737799 0.023948 9.483354 -2.215177
1311878198.741280 0.023948 9.088214 -1.927803
1311878198.742277 0.023948 9.088214 -1.927803
1311878198.745552 0.227505 9.519276 -1.879907
1311878198.746609 0.227505 9.519276 -1.879907
1311878198.750271 0.023948 9.279797 -1.736220
1311878198.751257 0.023948 9.279797 -1.736220
1311878198.752542 0.023948 9.279797 -1.736220
1311878198.753536 0.023948 9.279797 -1.736220
1311878198.756659 0.371192 9.112162 -1.592533
1311878198.757632 0.371192 9.112162 -1.592533
1311878198.761272 0.323296 9.447432 -1.185419
1311878198.762422 0.323296 9.447432 -1.185419
1311878198.765551 0.023948 9.279797 -1.448846
1311878198.766642 0.023948 9.279797 -1.448846
1311878198.770172 0.323296 9.471380 -1.353054
1311878198.771208 0.323296 9.471380 -1.353054
1311878198.772417 0.323296 9.471380 -1.353054
1311878198.773427 0.323296 9.471380 -1.353054
1311878198.776699 0.023948 9.567171 -1.065680
1311878198.777657 0.023948 9.567171 -1.065680
1311878198.781275 -0.263426 9.662963 -1.257263
1311878198.782666 -0.263426 9.662963 -1.257263
1311878198.785521 0.023948 9.447432 -1.544637
1311878198.786627 0.023948 9.447432 -1.544637
1311878198.790267 0.227505 9.854546 -1.209367
1311878198.791302 0.227505 9.854546 -1.209367
1311878198.792542 0.227505 9.854546 -1.209367
1311878198.793508 0.227505 9.854546 -1.209367
1311878198.796766 -0.263426 9.471380 -1.556611
1311878198.797629 -0.263426 9.471380 -1.556611
1311878198.801289 0.119739 9.662963 -1.544637
1311878198.802389 0.119739 9.662963 -1.544637
1311878198.805543 0.119739 9.279797 -1.832012
1311878198.806658 0.119739 9.279797 -1.832012
1311878198.810177 -0.347244 9.088214 -2.023594
1311878198.811272 -0.347244 9.088214 -2.023594
1311878198.812504 -0.347244 9.088214 -2.023594
1311878198.813769 -0.347244 9.088214 -2.023594
1311878198.816663 0.407114 9.471380 -1.927803
1311878198.817646 0.407114 9.471380 -1.927803
1311878198.821293 0.023948 9.040318 -2.298995
1311878198.822284 0.023948 9.040318 -2.298995
1311878198.825538 0.071844 9.100188 -2.215177
1311878198.826528 0.071844 9.100188 -2.215177
1311878198.830277 0.407114 9.279797 -1.832012
1311878198.831132 0.407114 9.279797 -1.832012
1311878198.832400 0.407114 9.279797 -1.832012
1311878198.833431 0.407114 9.279797 -1.832012
1311878198.836722 0.023948 9.471380 -1.544637
1311878198.837800 0.023948 9.471380 -1.544637
1311878198.841525 0.502905 9.519276 -1.161471
1311878198.842409 0.502905 9.519276 -1.161471
1311878198.843539 0.502905 9.519276 -1.161471
1311878198.846646 0.407114 9.471380 -1.161471
1311878198.847655 0.407114 9.471380 -1.161471
1311878198.851450 0.407114 9.471380 -0.969888
1311878198.852284 0.407114 9.471380 -0.969888
1311878198.853420 0.407114 9.471380 -0.969888
1311878198.856640 0.407114 9.567171 -0.778306
1311878198.857633 0.407114 9.567171 -0.778306
1311878198.861271 0.419088 9.279797 -1.257263
1311878198.862381 0.419088 9.279797 -1.257263
1311878198.865537 0.598697 9.088214 -1.353054
1311878198.866657 0.598697 9.088214 -1.353054
1311878198.870172 0.502905 9.088214 -1.353054
